"workerid","rt","trial_type","story","trial_num","target","missing","condition","planet","frequency","treatment","query","distribution","category","response","unit"
0,13309,"prior_and_posterior","alert",0,"makes the animals alert",4,"prior","X137",NA,"compound","make the animals alert","rare","sapers",0.19,"animals"
0,13309,"prior_and_posterior","alert",0,"makes the animals alert",4,"prior","X137",NA,"compound","make the animals alert","rare","sapers",0.35,"animals"
0,13309,"prior_and_posterior","alert",0,"makes the animals alert",4,"prior","X137",NA,"compound","make the animals alert","rare","sapers",0.3,"animals"
0,13309,"prior_and_posterior","alert",0,"makes the animals alert",4,"prior","X137",NA,"compound","make the animals alert","rare","sapers",0.43,"animals"
1,56936,"prior_and_posterior","alert",0,"makes the animals alert",4,"prior","X137",NA,"compound","make the animals alert","accidental","feps",0.15,"animals"
1,56936,"prior_and_posterior","alert",0,"makes the animals alert",4,"prior","X137",NA,"compound","make the animals alert","accidental","feps",0.08,"animals"
1,56936,"prior_and_posterior","alert",0,"makes the animals alert",4,"prior","X137",NA,"compound","make the animals alert","accidental","feps",0.16,"animals"
1,56936,"prior_and_posterior","alert",0,"makes the animals alert",4,"prior","X137",NA,"compound","make the animals alert","accidental","feps",0.1,"animals"
2,153720,"prior_and_posterior","alert",0,"makes the animals alert",1,"prior","Z142",NA,"compound","make the animals alert","prevalent","trufts",0.85,"animals"
2,153720,"prior_and_posterior","alert",0,"makes the animals alert",1,"prior","Z142",NA,"compound","make the animals alert","prevalent","trufts",0.89,"animals"
2,153720,"prior_and_posterior","alert",0,"makes the animals alert",1,"prior","Z142",NA,"compound","make the animals alert","prevalent","trufts",0.92,"animals"
2,153720,"prior_and_posterior","alert",0,"makes the animals alert",1,"prior","Z142",NA,"compound","make the animals alert","prevalent","trufts",0.94,"animals"
3,40856,"prior_and_posterior","alert",0,"makes the animals alert",9,"speaker","A325",20,"compound","make the animals alert","prevalent","feps",0,"animals"
4,70976,"prior_and_posterior","alert",0,"makes the animals alert",1,"prior","X137",NA,"compound","make the animals alert","accidental","dorbs",0.05,"animals"
4,70976,"prior_and_posterior","alert",0,"makes the animals alert",1,"prior","X137",NA,"compound","make the animals alert","accidental","dorbs",0.06,"animals"
4,70976,"prior_and_posterior","alert",0,"makes the animals alert",1,"prior","X137",NA,"compound","make the animals alert","accidental","dorbs",0.07,"animals"
4,70976,"prior_and_posterior","alert",0,"makes the animals alert",1,"prior","X137",NA,"compound","make the animals alert","accidental","dorbs",0.07,"animals"
5,144248,"prior_and_posterior","alert",0,"makes the animals alert",8,"prior","A325",NA,"compound","make the animals alert","accidental","blins",0.04,"animals"
5,144248,"prior_and_posterior","alert",0,"makes the animals alert",8,"prior","A325",NA,"compound","make the animals alert","accidental","blins",0.04,"animals"
5,144248,"prior_and_posterior","alert",0,"makes the animals alert",8,"prior","A325",NA,"compound","make the animals alert","accidental","blins",0.06,"animals"
5,144248,"prior_and_posterior","alert",0,"makes the animals alert",8,"prior","A325",NA,"compound","make the animals alert","accidental","blins",0.07,"animals"
6,43111,"prior_and_posterior","alert",0,"makes the animals alert",5,"speaker","Z142",20,"compound","make the animals alert","prevalent","reesles",1,"animals"
7,97561,"prior_and_posterior","alert",0,"makes the animals alert",6,"speaker","X137",20,"compound","make the animals alert","rare","reesles",0,"animals"
8,89667,"prior_and_posterior","alert",0,"makes the animals alert",9,"speaker","Z142",20,"compound","make the animals alert","rare","zorbs",0,"animals"
9,68535,"prior_and_posterior","alert",0,"makes the animals alert",2,"prior","X137",NA,"compound","make the animals alert","accidental","wugs",0.07,"animals"
9,68535,"prior_and_posterior","alert",0,"makes the animals alert",2,"prior","X137",NA,"compound","make the animals alert","accidental","wugs",0.13,"animals"
9,68535,"prior_and_posterior","alert",0,"makes the animals alert",2,"prior","X137",NA,"compound","make the animals alert","accidental","wugs",0.07,"animals"
9,68535,"prior_and_posterior","alert",0,"makes the animals alert",2,"prior","X137",NA,"compound","make the animals alert","accidental","wugs",0.11,"animals"
10,120222,"prior_and_posterior","alert",0,"makes the animals alert",4,"speaker","X137",20,"compound","make the animals alert","rare","stups",1,"animals"
11,122691,"prior_and_posterior","alert",0,"makes the animals alert",8,"prior","A325",NA,"compound","make the animals alert","accidental","elleps",0.05,"animals"
11,122691,"prior_and_posterior","alert",0,"makes the animals alert",8,"prior","A325",NA,"compound","make the animals alert","accidental","elleps",0.01,"animals"
11,122691,"prior_and_posterior","alert",0,"makes the animals alert",8,"prior","A325",NA,"compound","make the animals alert","accidental","elleps",0.07,"animals"
11,122691,"prior_and_posterior","alert",0,"makes the animals alert",8,"prior","A325",NA,"compound","make the animals alert","accidental","elleps",0.12,"animals"
12,64635,"prior_and_posterior","alert",0,"makes the animals alert",9,"prior","Z142",NA,"compound","make the animals alert","rare","trufts",0,"animals"
12,64635,"prior_and_posterior","alert",0,"makes the animals alert",9,"prior","Z142",NA,"compound","make the animals alert","rare","trufts",0,"animals"
12,64635,"prior_and_posterior","alert",0,"makes the animals alert",9,"prior","Z142",NA,"compound","make the animals alert","rare","trufts",0.18,"animals"
12,64635,"prior_and_posterior","alert",0,"makes the animals alert",9,"prior","Z142",NA,"compound","make the animals alert","rare","trufts",0,"animals"
13,63930,"prior_and_posterior","alert",0,"makes the animals alert",9,"speaker","Q681",20,"compound","make the animals alert","rare","krivels",1,"animals"
14,49407,"prior_and_posterior","alert",0,"makes the animals alert",4,"speaker","Q681",20,"compound","make the animals alert","accidental","krivels",0,"animals"
15,204847,"prior_and_posterior","alert",0,"makes the animals alert",9,"prior","Z142",NA,"compound","make the animals alert","rare","sapers",0.01,"animals"
15,204847,"prior_and_posterior","alert",0,"makes the animals alert",9,"prior","Z142",NA,"compound","make the animals alert","rare","sapers",0.01,"animals"
15,204847,"prior_and_posterior","alert",0,"makes the animals alert",9,"prior","Z142",NA,"compound","make the animals alert","rare","sapers",0.03,"animals"
15,204847,"prior_and_posterior","alert",0,"makes the animals alert",9,"prior","Z142",NA,"compound","make the animals alert","rare","sapers",0.03,"animals"
16,42537,"prior_and_posterior","alert",0,"makes the animals alert",8,"speaker","X137",20,"compound","make the animals alert","rare","pangolins",0,"animals"
17,824754,"prior_and_posterior","alert",0,"makes the animals alert",1,"prior","A325",NA,"compound","make the animals alert","accidental","blins",0.3,"animals"
17,824754,"prior_and_posterior","alert",0,"makes the animals alert",1,"prior","A325",NA,"compound","make the animals alert","accidental","blins",0.11,"animals"
17,824754,"prior_and_posterior","alert",0,"makes the animals alert",1,"prior","A325",NA,"compound","make the animals alert","accidental","blins",0.31,"animals"
17,824754,"prior_and_posterior","alert",0,"makes the animals alert",1,"prior","A325",NA,"compound","make the animals alert","accidental","blins",0.13,"animals"
18,120857,"prior_and_posterior","alert",0,"makes the animals alert",2,"speaker","X137",20,"compound","make the animals alert","rare","kazzes",1,"animals"
19,94213,"prior_and_posterior","alert",0,"makes the animals alert",7,"speaker","X137",20,"compound","make the animals alert","rare","kazzes",0,"animals"
20,191234,"prior_and_posterior","alert",0,"makes the animals alert",8,"prior","Z142",NA,"compound","make the animals alert","accidental","luzaks",0.04,"animals"
20,191234,"prior_and_posterior","alert",0,"makes the animals alert",8,"prior","Z142",NA,"compound","make the animals alert","accidental","luzaks",0.15,"animals"
20,191234,"prior_and_posterior","alert",0,"makes the animals alert",8,"prior","Z142",NA,"compound","make the animals alert","accidental","luzaks",0.09,"animals"
20,191234,"prior_and_posterior","alert",0,"makes the animals alert",8,"prior","Z142",NA,"compound","make the animals alert","accidental","luzaks",0.04,"animals"
21,33707,"prior_and_posterior","alert",0,"makes the animals alert",6,"speaker","X137",20,"compound","make the animals alert","rare","zorbs",1,"animals"
22,89296,"prior_and_posterior","alert",0,"makes the animals alert",2,"speaker","X137",20,"compound","make the animals alert","rare","reesles",1,"animals"
23,43951,"prior_and_posterior","alert",0,"makes the animals alert",6,"speaker","A325",20,"compound","make the animals alert","rare","cheebas",1,"animals"
24,207073,"prior_and_posterior","alert",0,"makes the animals alert",5,"prior","Q681",NA,"compound","make the animals alert","accidental","krivels",0.14,"animals"
24,207073,"prior_and_posterior","alert",0,"makes the animals alert",5,"prior","Q681",NA,"compound","make the animals alert","accidental","krivels",0.34,"animals"
24,207073,"prior_and_posterior","alert",0,"makes the animals alert",5,"prior","Q681",NA,"compound","make the animals alert","accidental","krivels",0.12,"animals"
24,207073,"prior_and_posterior","alert",0,"makes the animals alert",5,"prior","Q681",NA,"compound","make the animals alert","accidental","krivels",0.31,"animals"
25,58613,"prior_and_posterior","alert",0,"makes the animals alert",6,"prior","A325",NA,"compound","make the animals alert","accidental","krivels",0.07,"animals"
25,58613,"prior_and_posterior","alert",0,"makes the animals alert",6,"prior","A325",NA,"compound","make the animals alert","accidental","krivels",0.15,"animals"
25,58613,"prior_and_posterior","alert",0,"makes the animals alert",6,"prior","A325",NA,"compound","make the animals alert","accidental","krivels",0.23,"animals"
25,58613,"prior_and_posterior","alert",0,"makes the animals alert",6,"prior","A325",NA,"compound","make the animals alert","accidental","krivels",0.07,"animals"
26,82121,"prior_and_posterior","alert",0,"makes the animals alert",8,"prior","X137",NA,"compound","make the animals alert","rare","grinks",0.18,"animals"
26,82121,"prior_and_posterior","alert",0,"makes the animals alert",8,"prior","X137",NA,"compound","make the animals alert","rare","grinks",0.01,"animals"
26,82121,"prior_and_posterior","alert",0,"makes the animals alert",8,"prior","X137",NA,"compound","make the animals alert","rare","grinks",0.02,"animals"
26,82121,"prior_and_posterior","alert",0,"makes the animals alert",8,"prior","X137",NA,"compound","make the animals alert","rare","grinks",0.07,"animals"
27,153394,"prior_and_posterior","alert",0,"makes the animals alert",3,"speaker","X137",20,"compound","make the animals alert","rare","krivels",1,"animals"
28,35953,"prior_and_posterior","alert",0,"makes the animals alert",3,"speaker","Q681",20,"compound","make the animals alert","rare","thups",0,"animals"
29,65152,"prior_and_posterior","alert",0,"makes the animals alert",6,"speaker","A325",20,"compound","make the animals alert","accidental","morseths",1,"animals"
30,82750,"prior_and_posterior","alert",0,"makes the animals alert",6,"prior","Z142",NA,"compound","make the animals alert","rare","javs",0.01,"animals"
30,82750,"prior_and_posterior","alert",0,"makes the animals alert",6,"prior","Z142",NA,"compound","make the animals alert","rare","javs",0.09,"animals"
30,82750,"prior_and_posterior","alert",0,"makes the animals alert",6,"prior","Z142",NA,"compound","make the animals alert","rare","javs",0.02,"animals"
30,82750,"prior_and_posterior","alert",0,"makes the animals alert",6,"prior","Z142",NA,"compound","make the animals alert","rare","javs",0.03,"animals"
31,67290,"prior_and_posterior","alert",0,"makes the animals alert",5,"speaker","A325",20,"compound","make the animals alert","rare","daiths",1,"animals"
32,102854,"prior_and_posterior","alert",0,"makes the animals alert",4,"prior","Z142",NA,"compound","make the animals alert","accidental","blins",0.15,"animals"
32,102854,"prior_and_posterior","alert",0,"makes the animals alert",4,"prior","Z142",NA,"compound","make the animals alert","accidental","blins",0.04,"animals"
32,102854,"prior_and_posterior","alert",0,"makes the animals alert",4,"prior","Z142",NA,"compound","make the animals alert","accidental","blins",0.1,"animals"
32,102854,"prior_and_posterior","alert",0,"makes the animals alert",4,"prior","Z142",NA,"compound","make the animals alert","accidental","blins",0.1,"animals"
33,62257,"prior_and_posterior","alert",0,"makes the animals alert",3,"prior","Z142",NA,"compound","make the animals alert","rare","blins",0,"animals"
33,62257,"prior_and_posterior","alert",0,"makes the animals alert",3,"prior","Z142",NA,"compound","make the animals alert","rare","blins",0,"animals"
33,62257,"prior_and_posterior","alert",0,"makes the animals alert",3,"prior","Z142",NA,"compound","make the animals alert","rare","blins",0,"animals"
33,62257,"prior_and_posterior","alert",0,"makes the animals alert",3,"prior","Z142",NA,"compound","make the animals alert","rare","blins",0,"animals"
34,60135,"prior_and_posterior","alert",0,"makes the animals alert",6,"speaker","Q681",20,"compound","make the animals alert","rare","elleps",1,"animals"
35,49838,"prior_and_posterior","alert",0,"makes the animals alert",7,"speaker","Q681",20,"compound","make the animals alert","rare","trufts",1,"animals"
36,87768,"prior_and_posterior","alert",0,"makes the animals alert",6,"speaker","X137",20,"compound","make the animals alert","prevalent","ollers",0,"animals"
37,47170,"prior_and_posterior","alert",0,"makes the animals alert",2,"prior","Q681",NA,"compound","make the animals alert","rare","kweps",0,"animals"
37,47170,"prior_and_posterior","alert",0,"makes the animals alert",2,"prior","Q681",NA,"compound","make the animals alert","rare","kweps",0.15,"animals"
37,47170,"prior_and_posterior","alert",0,"makes the animals alert",2,"prior","Q681",NA,"compound","make the animals alert","rare","kweps",0,"animals"
37,47170,"prior_and_posterior","alert",0,"makes the animals alert",2,"prior","Q681",NA,"compound","make the animals alert","rare","kweps",0,"animals"
38,88365,"prior_and_posterior","alert",0,"makes the animals alert",6,"speaker","Q681",20,"compound","make the animals alert","rare","crullets",0,"animals"
39,31109,"prior_and_posterior","alert",0,"makes the animals alert",5,"prior","Z142",NA,"compound","make the animals alert","rare","kweps",0.46,"animals"
39,31109,"prior_and_posterior","alert",0,"makes the animals alert",5,"prior","Z142",NA,"compound","make the animals alert","rare","kweps",0.46,"animals"
39,31109,"prior_and_posterior","alert",0,"makes the animals alert",5,"prior","Z142",NA,"compound","make the animals alert","rare","kweps",0.46,"animals"
39,31109,"prior_and_posterior","alert",0,"makes the animals alert",5,"prior","Z142",NA,"compound","make the animals alert","rare","kweps",0.45,"animals"
40,193925,"prior_and_posterior","alert",0,"makes the animals alert",3,"prior","X137",NA,"compound","make the animals alert","accidental","dorbs",0.1,"animals"
40,193925,"prior_and_posterior","alert",0,"makes the animals alert",3,"prior","X137",NA,"compound","make the animals alert","accidental","dorbs",0.15,"animals"
40,193925,"prior_and_posterior","alert",0,"makes the animals alert",3,"prior","X137",NA,"compound","make the animals alert","accidental","dorbs",0.1,"animals"
40,193925,"prior_and_posterior","alert",0,"makes the animals alert",3,"prior","X137",NA,"compound","make the animals alert","accidental","dorbs",0.15,"animals"
41,79348,"prior_and_posterior","alert",0,"makes the animals alert",3,"speaker","A325",20,"compound","make the animals alert","accidental","blins",1,"animals"
42,1235154,"prior_and_posterior","alert",0,"makes the animals alert",3,"speaker","Z142",20,"compound","make the animals alert","rare","glippets",1,"animals"
43,100239,"prior_and_posterior","alert",0,"makes the animals alert",6,"speaker","Q681",20,"compound","make the animals alert","rare","reesles",0,"animals"
44,84856,"prior_and_posterior","alert",0,"makes the animals alert",8,"speaker","A325",20,"compound","make the animals alert","accidental","daiths",0,"animals"
45,16387,"prior_and_posterior","alert",0,"makes the animals alert",7,"speaker","A325",20,"compound","make the animals alert","rare","plovs",1,"animals"
46,30020,"prior_and_posterior","alert",0,"makes the animals alert",7,"prior","A325",NA,"compound","make the animals alert","rare","pangolins",0,"animals"
46,30020,"prior_and_posterior","alert",0,"makes the animals alert",7,"prior","A325",NA,"compound","make the animals alert","rare","pangolins",0,"animals"
46,30020,"prior_and_posterior","alert",0,"makes the animals alert",7,"prior","A325",NA,"compound","make the animals alert","rare","pangolins",0.05,"animals"
46,30020,"prior_and_posterior","alert",0,"makes the animals alert",7,"prior","A325",NA,"compound","make the animals alert","rare","pangolins",0,"animals"
47,109971,"prior_and_posterior","alert",0,"makes the animals alert",8,"prior","Q681",NA,"compound","make the animals alert","rare","blins",0.01,"animals"
47,109971,"prior_and_posterior","alert",0,"makes the animals alert",8,"prior","Q681",NA,"compound","make the animals alert","rare","blins",0.09,"animals"
47,109971,"prior_and_posterior","alert",0,"makes the animals alert",8,"prior","Q681",NA,"compound","make the animals alert","rare","blins",0.01,"animals"
47,109971,"prior_and_posterior","alert",0,"makes the animals alert",8,"prior","Q681",NA,"compound","make the animals alert","rare","blins",0.02,"animals"
48,126674,"prior_and_posterior","alert",0,"makes the animals alert",4,"prior","Z142",NA,"compound","make the animals alert","accidental","feps",0.15,"animals"
48,126674,"prior_and_posterior","alert",0,"makes the animals alert",4,"prior","Z142",NA,"compound","make the animals alert","accidental","feps",0.07,"animals"
48,126674,"prior_and_posterior","alert",0,"makes the animals alert",4,"prior","Z142",NA,"compound","make the animals alert","accidental","feps",0.04,"animals"
48,126674,"prior_and_posterior","alert",0,"makes the animals alert",4,"prior","Z142",NA,"compound","make the animals alert","accidental","feps",0.12,"animals"
49,97225,"prior_and_posterior","alert",0,"makes the animals alert",5,"speaker","A325",20,"compound","make the animals alert","rare","blins",1,"animals"
50,179132,"prior_and_posterior","alert",0,"makes the animals alert",9,"speaker","Z142",20,"compound","make the animals alert","accidental","luzaks",1,"animals"
51,27756,"prior_and_posterior","alert",0,"makes the animals alert",6,"speaker","Z142",20,"compound","make the animals alert","rare","ollers",1,"animals"
52,78007,"prior_and_posterior","alert",0,"makes the animals alert",6,"speaker","Q681",20,"compound","make the animals alert","accidental","thups",1,"animals"
53,77873,"prior_and_posterior","alert",0,"makes the animals alert",4,"speaker","X137",20,"compound","make the animals alert","accidental","reesles",0,"animals"
54,78533,"prior_and_posterior","alert",0,"makes the animals alert",1,"speaker","Z142",20,"compound","make the animals alert","accidental","thups",1,"animals"
55,61153,"prior_and_posterior","alert",0,"makes the animals alert",5,"prior","A325",NA,"compound","make the animals alert","accidental","blins",0.48,"animals"
55,61153,"prior_and_posterior","alert",0,"makes the animals alert",5,"prior","A325",NA,"compound","make the animals alert","accidental","blins",0.66,"animals"
55,61153,"prior_and_posterior","alert",0,"makes the animals alert",5,"prior","A325",NA,"compound","make the animals alert","accidental","blins",0.51,"animals"
55,61153,"prior_and_posterior","alert",0,"makes the animals alert",5,"prior","A325",NA,"compound","make the animals alert","accidental","blins",0.61,"animals"
56,167971,"prior_and_posterior","alert",0,"makes the animals alert",1,"prior","X137",NA,"compound","make the animals alert","rare","krivels",0,"animals"
56,167971,"prior_and_posterior","alert",0,"makes the animals alert",1,"prior","X137",NA,"compound","make the animals alert","rare","krivels",0.1,"animals"
56,167971,"prior_and_posterior","alert",0,"makes the animals alert",1,"prior","X137",NA,"compound","make the animals alert","rare","krivels",0,"animals"
56,167971,"prior_and_posterior","alert",0,"makes the animals alert",1,"prior","X137",NA,"compound","make the animals alert","rare","krivels",0,"animals"
57,176036,"prior_and_posterior","alert",0,"makes the animals alert",3,"speaker","A325",20,"compound","make the animals alert","accidental","pangolins",1,"animals"
58,87211,"prior_and_posterior","alert",0,"makes the animals alert",1,"prior","A325",NA,"compound","make the animals alert","accidental","crullets",0.08,"animals"
58,87211,"prior_and_posterior","alert",0,"makes the animals alert",1,"prior","A325",NA,"compound","make the animals alert","accidental","crullets",0.09,"animals"
58,87211,"prior_and_posterior","alert",0,"makes the animals alert",1,"prior","A325",NA,"compound","make the animals alert","accidental","crullets",0.08,"animals"
58,87211,"prior_and_posterior","alert",0,"makes the animals alert",1,"prior","A325",NA,"compound","make the animals alert","accidental","crullets",0.08,"animals"
59,93077,"prior_and_posterior","alert",0,"makes the animals alert",1,"speaker","Q681",20,"compound","make the animals alert","accidental","zorbs",1,"animals"
60,177121,"prior_and_posterior","alert",0,"makes the animals alert",2,"speaker","X137",20,"compound","make the animals alert","accidental","mooks",1,"animals"
61,89312,"prior_and_posterior","alert",0,"makes the animals alert",1,"speaker","Z142",20,"compound","make the animals alert","accidental","glippets",0,"animals"
62,76245,"prior_and_posterior","alert",0,"makes the animals alert",2,"speaker","Z142",20,"compound","make the animals alert","rare","krivels",1,"animals"
63,46323,"prior_and_posterior","alert",0,"makes the animals alert",2,"speaker","X137",20,"compound","make the animals alert","rare","krivels",1,"animals"
64,65259,"prior_and_posterior","alert",0,"makes the animals alert",2,"prior","X137",NA,"compound","make the animals alert","prevalent","kweps",0.58,"animals"
64,65259,"prior_and_posterior","alert",0,"makes the animals alert",2,"prior","X137",NA,"compound","make the animals alert","prevalent","kweps",0.69,"animals"
64,65259,"prior_and_posterior","alert",0,"makes the animals alert",2,"prior","X137",NA,"compound","make the animals alert","prevalent","kweps",0.53,"animals"
64,65259,"prior_and_posterior","alert",0,"makes the animals alert",2,"prior","X137",NA,"compound","make the animals alert","prevalent","kweps",0.74,"animals"
65,56479,"prior_and_posterior","alert",0,"makes the animals alert",7,"prior","A325",NA,"compound","make the animals alert","rare","thups",0,"animals"
65,56479,"prior_and_posterior","alert",0,"makes the animals alert",7,"prior","A325",NA,"compound","make the animals alert","rare","thups",0,"animals"
65,56479,"prior_and_posterior","alert",0,"makes the animals alert",7,"prior","A325",NA,"compound","make the animals alert","rare","thups",0.17,"animals"
65,56479,"prior_and_posterior","alert",0,"makes the animals alert",7,"prior","A325",NA,"compound","make the animals alert","rare","thups",0,"animals"
66,40412,"prior_and_posterior","alert",0,"makes the animals alert",6,"prior","X137",NA,"compound","make the animals alert","accidental","wugs",0.17,"animals"
66,40412,"prior_and_posterior","alert",0,"makes the animals alert",6,"prior","X137",NA,"compound","make the animals alert","accidental","wugs",0.17,"animals"
66,40412,"prior_and_posterior","alert",0,"makes the animals alert",6,"prior","X137",NA,"compound","make the animals alert","accidental","wugs",0.19,"animals"
66,40412,"prior_and_posterior","alert",0,"makes the animals alert",6,"prior","X137",NA,"compound","make the animals alert","accidental","wugs",0.17,"animals"
67,68341,"prior_and_posterior","alert",0,"makes the animals alert",5,"prior","Z142",NA,"compound","make the animals alert","rare","reesles",0.5,"animals"
67,68341,"prior_and_posterior","alert",0,"makes the animals alert",5,"prior","Z142",NA,"compound","make the animals alert","rare","reesles",0,"animals"
67,68341,"prior_and_posterior","alert",0,"makes the animals alert",5,"prior","Z142",NA,"compound","make the animals alert","rare","reesles",0,"animals"
67,68341,"prior_and_posterior","alert",0,"makes the animals alert",5,"prior","Z142",NA,"compound","make the animals alert","rare","reesles",0,"animals"
68,97235,"prior_and_posterior","alert",0,"makes the animals alert",6,"prior","X137",NA,"compound","make the animals alert","accidental","frams",0.15,"animals"
68,97235,"prior_and_posterior","alert",0,"makes the animals alert",6,"prior","X137",NA,"compound","make the animals alert","accidental","frams",0.15,"animals"
68,97235,"prior_and_posterior","alert",0,"makes the animals alert",6,"prior","X137",NA,"compound","make the animals alert","accidental","frams",0.08,"animals"
68,97235,"prior_and_posterior","alert",0,"makes the animals alert",6,"prior","X137",NA,"compound","make the animals alert","accidental","frams",0.08,"animals"
69,67474,"prior_and_posterior","alert",0,"makes the animals alert",4,"speaker","A325",20,"compound","make the animals alert","accidental","luzaks",1,"animals"
70,75193,"prior_and_posterior","alert",0,"makes the animals alert",6,"prior","X137",NA,"compound","make the animals alert","rare","dorbs",0,"animals"
70,75193,"prior_and_posterior","alert",0,"makes the animals alert",6,"prior","X137",NA,"compound","make the animals alert","rare","dorbs",0,"animals"
70,75193,"prior_and_posterior","alert",0,"makes the animals alert",6,"prior","X137",NA,"compound","make the animals alert","rare","dorbs",0,"animals"
70,75193,"prior_and_posterior","alert",0,"makes the animals alert",6,"prior","X137",NA,"compound","make the animals alert","rare","dorbs",0,"animals"
71,17701,"prior_and_posterior","alert",0,"makes the animals alert",3,"prior","Z142",NA,"compound","make the animals alert","rare","kazzes",0.27,"animals"
71,17701,"prior_and_posterior","alert",0,"makes the animals alert",3,"prior","Z142",NA,"compound","make the animals alert","rare","kazzes",0.18,"animals"
71,17701,"prior_and_posterior","alert",0,"makes the animals alert",3,"prior","Z142",NA,"compound","make the animals alert","rare","kazzes",0.22,"animals"
71,17701,"prior_and_posterior","alert",0,"makes the animals alert",3,"prior","Z142",NA,"compound","make the animals alert","rare","kazzes",0.36,"animals"
72,42941,"prior_and_posterior","alert",0,"makes the animals alert",1,"speaker","X137",20,"compound","make the animals alert","rare","zorbs",0,"animals"
73,133790,"prior_and_posterior","alert",0,"makes the animals alert",2,"prior","Z142",NA,"compound","make the animals alert","prevalent","krivels",0.64,"animals"
73,133790,"prior_and_posterior","alert",0,"makes the animals alert",2,"prior","Z142",NA,"compound","make the animals alert","prevalent","krivels",0.64,"animals"
73,133790,"prior_and_posterior","alert",0,"makes the animals alert",2,"prior","Z142",NA,"compound","make the animals alert","prevalent","krivels",0.64,"animals"
73,133790,"prior_and_posterior","alert",0,"makes the animals alert",2,"prior","Z142",NA,"compound","make the animals alert","prevalent","krivels",0.64,"animals"
74,17470,"prior_and_posterior","alert",0,"makes the animals alert",8,"prior","Q681",NA,"compound","make the animals alert","prevalent","dorbs",0.4,"animals"
74,17470,"prior_and_posterior","alert",0,"makes the animals alert",8,"prior","Q681",NA,"compound","make the animals alert","prevalent","dorbs",0.42,"animals"
74,17470,"prior_and_posterior","alert",0,"makes the animals alert",8,"prior","Q681",NA,"compound","make the animals alert","prevalent","dorbs",0.38,"animals"
74,17470,"prior_and_posterior","alert",0,"makes the animals alert",8,"prior","Q681",NA,"compound","make the animals alert","prevalent","dorbs",0.35,"animals"
75,91857,"prior_and_posterior","alert",0,"makes the animals alert",7,"prior","A325",NA,"compound","make the animals alert","accidental","trufts",0.06,"animals"
75,91857,"prior_and_posterior","alert",0,"makes the animals alert",7,"prior","A325",NA,"compound","make the animals alert","accidental","trufts",0.08,"animals"
75,91857,"prior_and_posterior","alert",0,"makes the animals alert",7,"prior","A325",NA,"compound","make the animals alert","accidental","trufts",0.05,"animals"
75,91857,"prior_and_posterior","alert",0,"makes the animals alert",7,"prior","A325",NA,"compound","make the animals alert","accidental","trufts",0.09,"animals"
76,95743,"prior_and_posterior","alert",0,"makes the animals alert",1,"speaker","X137",20,"compound","make the animals alert","rare","daiths",1,"animals"
77,41970,"prior_and_posterior","alert",0,"makes the animals alert",8,"speaker","X137",20,"compound","make the animals alert","accidental","zoovs",1,"animals"
78,65847,"prior_and_posterior","alert",0,"makes the animals alert",4,"speaker","A325",20,"compound","make the animals alert","rare","dorbs",0,"animals"
79,15845,"prior_and_posterior","alert",0,"makes the animals alert",1,"speaker","X137",20,"compound","make the animals alert","rare","moxes",0,"animals"
80,107806,"prior_and_posterior","alert",0,"makes the animals alert",5,"prior","Z142",NA,"compound","make the animals alert","accidental","trufts",0.09,"animals"
80,107806,"prior_and_posterior","alert",0,"makes the animals alert",5,"prior","Z142",NA,"compound","make the animals alert","accidental","trufts",0.05,"animals"
80,107806,"prior_and_posterior","alert",0,"makes the animals alert",5,"prior","Z142",NA,"compound","make the animals alert","accidental","trufts",0.02,"animals"
80,107806,"prior_and_posterior","alert",0,"makes the animals alert",5,"prior","Z142",NA,"compound","make the animals alert","accidental","trufts",0.16,"animals"
81,126270,"prior_and_posterior","alert",0,"makes the animals alert",8,"speaker","Q681",20,"compound","make the animals alert","prevalent","lorches",0,"animals"
82,122922,"prior_and_posterior","alert",0,"makes the animals alert",3,"speaker","A325",20,"compound","make the animals alert","prevalent","elleps",0,"animals"
83,87023,"prior_and_posterior","alert",0,"makes the animals alert",6,"speaker","Z142",20,"compound","make the animals alert","rare","ollers",0,"animals"
84,58670,"prior_and_posterior","alert",0,"makes the animals alert",7,"speaker","X137",20,"compound","make the animals alert","rare","reesles",1,"animals"
85,49255,"prior_and_posterior","alert",0,"makes the animals alert",4,"speaker","Z142",20,"compound","make the animals alert","accidental","krivels",1,"animals"
86,46273,"prior_and_posterior","alert",0,"makes the animals alert",6,"speaker","Q681",20,"compound","make the animals alert","rare","reesles",0,"animals"
87,115902,"prior_and_posterior","alert",0,"makes the animals alert",3,"prior","X137",NA,"compound","make the animals alert","rare","luzaks",0,"animals"
87,115902,"prior_and_posterior","alert",0,"makes the animals alert",3,"prior","X137",NA,"compound","make the animals alert","rare","luzaks",0,"animals"
87,115902,"prior_and_posterior","alert",0,"makes the animals alert",3,"prior","X137",NA,"compound","make the animals alert","rare","luzaks",0,"animals"
87,115902,"prior_and_posterior","alert",0,"makes the animals alert",3,"prior","X137",NA,"compound","make the animals alert","rare","luzaks",0,"animals"
88,85384,"prior_and_posterior","alert",0,"makes the animals alert",8,"speaker","A325",20,"compound","make the animals alert","rare","feps",0,"animals"
89,76952,"prior_and_posterior","alert",0,"makes the animals alert",6,"prior","A325",NA,"compound","make the animals alert","accidental","wugs",0.16,"animals"
89,76952,"prior_and_posterior","alert",0,"makes the animals alert",6,"prior","A325",NA,"compound","make the animals alert","accidental","wugs",0.16,"animals"
89,76952,"prior_and_posterior","alert",0,"makes the animals alert",6,"prior","A325",NA,"compound","make the animals alert","accidental","wugs",0.13,"animals"
89,76952,"prior_and_posterior","alert",0,"makes the animals alert",6,"prior","A325",NA,"compound","make the animals alert","accidental","wugs",0.15,"animals"
90,64257,"prior_and_posterior","alert",0,"makes the animals alert",4,"speaker","Q681",20,"compound","make the animals alert","rare","zorbs",0,"animals"
91,101186,"prior_and_posterior","alert",0,"makes the animals alert",1,"speaker","Z142",20,"compound","make the animals alert","accidental","javs",1,"animals"
92,65788,"prior_and_posterior","alert",0,"makes the animals alert",9,"speaker","A325",20,"compound","make the animals alert","rare","reesles",1,"animals"
93,187472,"prior_and_posterior","alert",0,"makes the animals alert",7,"prior","Q681",NA,"compound","make the animals alert","prevalent","kazzes",0.64,"animals"
93,187472,"prior_and_posterior","alert",0,"makes the animals alert",7,"prior","Q681",NA,"compound","make the animals alert","prevalent","kazzes",0.56,"animals"
93,187472,"prior_and_posterior","alert",0,"makes the animals alert",7,"prior","Q681",NA,"compound","make the animals alert","prevalent","kazzes",0.76,"animals"
93,187472,"prior_and_posterior","alert",0,"makes the animals alert",7,"prior","Q681",NA,"compound","make the animals alert","prevalent","kazzes",0.83,"animals"
94,84962,"prior_and_posterior","alert",0,"makes the animals alert",9,"prior","X137",NA,"compound","make the animals alert","accidental","crullets",0.06,"animals"
94,84962,"prior_and_posterior","alert",0,"makes the animals alert",9,"prior","X137",NA,"compound","make the animals alert","accidental","crullets",0.08,"animals"
94,84962,"prior_and_posterior","alert",0,"makes the animals alert",9,"prior","X137",NA,"compound","make the animals alert","accidental","crullets",0.07,"animals"
94,84962,"prior_and_posterior","alert",0,"makes the animals alert",9,"prior","X137",NA,"compound","make the animals alert","accidental","crullets",0.09,"animals"
95,111790,"prior_and_posterior","alert",0,"makes the animals alert",7,"prior","Q681",NA,"compound","make the animals alert","accidental","mooks",0.07,"animals"
95,111790,"prior_and_posterior","alert",0,"makes the animals alert",7,"prior","Q681",NA,"compound","make the animals alert","accidental","mooks",0.07,"animals"
95,111790,"prior_and_posterior","alert",0,"makes the animals alert",7,"prior","Q681",NA,"compound","make the animals alert","accidental","mooks",0.07,"animals"
95,111790,"prior_and_posterior","alert",0,"makes the animals alert",7,"prior","Q681",NA,"compound","make the animals alert","accidental","mooks",0.07,"animals"
96,83995,"prior_and_posterior","alert",0,"makes the animals alert",7,"speaker","A325",20,"compound","make the animals alert","rare","sapers",0,"animals"
97,12884,"prior_and_posterior","alert",0,"makes the animals alert",5,"prior","Q681",NA,"compound","make the animals alert","rare","taifels",0.3,"animals"
97,12884,"prior_and_posterior","alert",0,"makes the animals alert",5,"prior","Q681",NA,"compound","make the animals alert","rare","taifels",0.46,"animals"
97,12884,"prior_and_posterior","alert",0,"makes the animals alert",5,"prior","Q681",NA,"compound","make the animals alert","rare","taifels",0.54,"animals"
97,12884,"prior_and_posterior","alert",0,"makes the animals alert",5,"prior","Q681",NA,"compound","make the animals alert","rare","taifels",0.34,"animals"
98,64728,"prior_and_posterior","alert",0,"makes the animals alert",7,"speaker","Q681",20,"compound","make the animals alert","accidental","glippets",1,"animals"
99,150194,"prior_and_posterior","alert",0,"makes the animals alert",4,"speaker","Q681",20,"compound","make the animals alert","accidental","morseths",1,"animals"
100,83825,"prior_and_posterior","alert",0,"makes the animals alert",4,"speaker","Z142",20,"compound","make the animals alert","accidental","luzaks",0,"animals"
101,169893,"prior_and_posterior","hair color",0,"makes the animals&quotechar hair brown",3,"prior","A325",NA,"compound","make the animals&quotechar hair brown","accidental","taifels",0.06,"animals&quotechar hair"
101,169893,"prior_and_posterior","hair color",0,"makes the animals&quotechar hair brown",3,"prior","A325",NA,"compound","make the animals&quotechar hair brown","accidental","taifels",0.08,"animals&quotechar hair"
101,169893,"prior_and_posterior","hair color",0,"makes the animals&quotechar hair brown",3,"prior","A325",NA,"compound","make the animals&quotechar hair brown","accidental","taifels",0.06,"animals&quotechar hair"
101,169893,"prior_and_posterior","hair color",0,"makes the animals&quotechar hair brown",3,"prior","A325",NA,"compound","make the animals&quotechar hair brown","accidental","taifels",0.1,"animals&quotechar hair"
102,80460,"prior_and_posterior","hair color",0,"makes the animals&quotechar hair brown",5,"prior","Z142",NA,"compound","make the animals&quotechar hair brown","rare","kweps",0.14,"animals&quotechar hair"
102,80460,"prior_and_posterior","hair color",0,"makes the animals&quotechar hair brown",5,"prior","Z142",NA,"compound","make the animals&quotechar hair brown","rare","kweps",0.01,"animals&quotechar hair"
102,80460,"prior_and_posterior","hair color",0,"makes the animals&quotechar hair brown",5,"prior","Z142",NA,"compound","make the animals&quotechar hair brown","rare","kweps",0.01,"animals&quotechar hair"
102,80460,"prior_and_posterior","hair color",0,"makes the animals&quotechar hair brown",5,"prior","Z142",NA,"compound","make the animals&quotechar hair brown","rare","kweps",0,"animals&quotechar hair"
103,170977,"prior_and_posterior","hair color",0,"makes the animals&quotechar hair brown",8,"prior","A325",NA,"compound","make the animals&quotechar hair brown","rare","elleps",0.19,"animals&quotechar hair"
103,170977,"prior_and_posterior","hair color",0,"makes the animals&quotechar hair brown",8,"prior","A325",NA,"compound","make the animals&quotechar hair brown","rare","elleps",0.02,"animals&quotechar hair"
103,170977,"prior_and_posterior","hair color",0,"makes the animals&quotechar hair brown",8,"prior","A325",NA,"compound","make the animals&quotechar hair brown","rare","elleps",0.03,"animals&quotechar hair"
103,170977,"prior_and_posterior","hair color",0,"makes the animals&quotechar hair brown",8,"prior","A325",NA,"compound","make the animals&quotechar hair brown","rare","elleps",0.44,"animals&quotechar hair"
104,83328,"prior_and_posterior","hair color",0,"makes the animals&quotechar hair brown",1,"speaker","X137",20,"compound","make the animals&quotechar hair brown","accidental","reesles",1,"animals&quotechar hair"
105,37187,"prior_and_posterior","salivate",0,"makes the animals salivate",6,"speaker","X137",20,"compound","make the animals salivate","rare","javs",1,"animals"
106,93352,"prior_and_posterior","salivate",0,"makes the animals salivate",8,"speaker","Z142",20,"compound","make the animals salivate","rare","elleps",1,"animals"
107,61062,"prior_and_posterior","hair color",0,"makes the animals&quotechar hair brown",5,"speaker","Z142",20,"compound","make the animals&quotechar hair brown","rare","blins",0,"animals&quotechar hair"
108,73845,"prior_and_posterior","alert",0,"makes the animals alert",2,"prior","A325",NA,"compound","make the animals alert","rare","crullets",0,"animals"
108,73845,"prior_and_posterior","alert",0,"makes the animals alert",2,"prior","A325",NA,"compound","make the animals alert","rare","crullets",0,"animals"
108,73845,"prior_and_posterior","alert",0,"makes the animals alert",2,"prior","A325",NA,"compound","make the animals alert","rare","crullets",0,"animals"
108,73845,"prior_and_posterior","alert",0,"makes the animals alert",2,"prior","A325",NA,"compound","make the animals alert","rare","crullets",0,"animals"
109,203576,"prior_and_posterior","alert",0,"makes the animals alert",6,"prior","X137",NA,"compound","make the animals alert","accidental","daiths",0.14,"animals"
109,203576,"prior_and_posterior","alert",0,"makes the animals alert",6,"prior","X137",NA,"compound","make the animals alert","accidental","daiths",0.19,"animals"
109,203576,"prior_and_posterior","alert",0,"makes the animals alert",6,"prior","X137",NA,"compound","make the animals alert","accidental","daiths",0.23,"animals"
109,203576,"prior_and_posterior","alert",0,"makes the animals alert",6,"prior","X137",NA,"compound","make the animals alert","accidental","daiths",0.15,"animals"
110,32918,"prior_and_posterior","alert",0,"makes the animals alert",3,"speaker","Z142",20,"compound","make the animals alert","rare","sapers",1,"animals"
111,203960,"prior_and_posterior","alert",0,"makes the animals alert",3,"prior","Z142",NA,"compound","make the animals alert","accidental","crullets",0.09,"animals"
111,203960,"prior_and_posterior","alert",0,"makes the animals alert",3,"prior","Z142",NA,"compound","make the animals alert","accidental","crullets",0.21,"animals"
111,203960,"prior_and_posterior","alert",0,"makes the animals alert",3,"prior","Z142",NA,"compound","make the animals alert","accidental","crullets",0.1,"animals"
111,203960,"prior_and_posterior","alert",0,"makes the animals alert",3,"prior","Z142",NA,"compound","make the animals alert","accidental","crullets",0.31,"animals"
112,92254,"prior_and_posterior","hair color",0,"makes the animals&quotechar hair brown",7,"prior","Z142",NA,"compound","make the animals&quotechar hair brown","accidental","glippets",0.08,"animals&quotechar hair"
112,92254,"prior_and_posterior","hair color",0,"makes the animals&quotechar hair brown",7,"prior","Z142",NA,"compound","make the animals&quotechar hair brown","accidental","glippets",0.17,"animals&quotechar hair"
112,92254,"prior_and_posterior","hair color",0,"makes the animals&quotechar hair brown",7,"prior","Z142",NA,"compound","make the animals&quotechar hair brown","accidental","glippets",0.25,"animals&quotechar hair"
112,92254,"prior_and_posterior","hair color",0,"makes the animals&quotechar hair brown",7,"prior","Z142",NA,"compound","make the animals&quotechar hair brown","accidental","glippets",0,"animals&quotechar hair"
113,23863,"prior_and_posterior","hair color",0,"makes the animals&quotechar hair brown",3,"speaker","X137",20,"compound","make the animals&quotechar hair brown","rare","crullets",0,"animals&quotechar hair"
114,58262,"prior_and_posterior","hair color",0,"makes the animals&quotechar hair brown",8,"speaker","A325",20,"compound","make the animals&quotechar hair brown","rare","mooks",1,"animals&quotechar hair"
115,79071,"prior_and_posterior","hair color",0,"makes the animals&quotechar hair brown",1,"speaker","Q681",20,"compound","make the animals&quotechar hair brown","rare","luzaks",1,"animals&quotechar hair"
116,75782,"prior_and_posterior","salivate",0,"makes the animals salivate",4,"speaker","X137",20,"compound","make the animals salivate","rare","stups",1,"animals"
117,92210,"prior_and_posterior","alert",0,"makes the animals alert",2,"speaker","A325",20,"compound","make the animals alert","accidental","grinks",1,"animals"
118,86721,"prior_and_posterior","alert",0,"makes the animals alert",2,"prior","X137",NA,"compound","make the animals alert","accidental","stups",0.07,"animals"
118,86721,"prior_and_posterior","alert",0,"makes the animals alert",2,"prior","X137",NA,"compound","make the animals alert","accidental","stups",0.08,"animals"
118,86721,"prior_and_posterior","alert",0,"makes the animals alert",2,"prior","X137",NA,"compound","make the animals alert","accidental","stups",0.07,"animals"
118,86721,"prior_and_posterior","alert",0,"makes the animals alert",2,"prior","X137",NA,"compound","make the animals alert","accidental","stups",0.06,"animals"
119,48865,"prior_and_posterior","alert",0,"makes the animals alert",9,"prior","X137",NA,"compound","make the animals alert","rare","reesles",0.02,"animals"
119,48865,"prior_and_posterior","alert",0,"makes the animals alert",9,"prior","X137",NA,"compound","make the animals alert","rare","reesles",0.02,"animals"
119,48865,"prior_and_posterior","alert",0,"makes the animals alert",9,"prior","X137",NA,"compound","make the animals alert","rare","reesles",0.15,"animals"
119,48865,"prior_and_posterior","alert",0,"makes the animals alert",9,"prior","X137",NA,"compound","make the animals alert","rare","reesles",0.04,"animals"
120,145427,"prior_and_posterior","alert",0,"makes the animals alert",6,"prior","X137",NA,"compound","make the animals alert","accidental","sapers",0.07,"animals"
120,145427,"prior_and_posterior","alert",0,"makes the animals alert",6,"prior","X137",NA,"compound","make the animals alert","accidental","sapers",0.07,"animals"
120,145427,"prior_and_posterior","alert",0,"makes the animals alert",6,"prior","X137",NA,"compound","make the animals alert","accidental","sapers",0.08,"animals"
120,145427,"prior_and_posterior","alert",0,"makes the animals alert",6,"prior","X137",NA,"compound","make the animals alert","accidental","sapers",0.04,"animals"
121,41375,"prior_and_posterior","alert",0,"makes the animals alert",1,"prior","Z142",NA,"compound","make the animals alert","accidental","kazzes",0.12,"animals"
121,41375,"prior_and_posterior","alert",0,"makes the animals alert",1,"prior","Z142",NA,"compound","make the animals alert","accidental","kazzes",0.12,"animals"
121,41375,"prior_and_posterior","alert",0,"makes the animals alert",1,"prior","Z142",NA,"compound","make the animals alert","accidental","kazzes",0.06,"animals"
121,41375,"prior_and_posterior","alert",0,"makes the animals alert",1,"prior","Z142",NA,"compound","make the animals alert","accidental","kazzes",0.06,"animals"
122,132565,"prior_and_posterior","hair color",0,"makes the animals&quotechar hair brown",4,"speaker","Z142",20,"compound","make the animals&quotechar hair brown","accidental","zorbs",1,"animals&quotechar hair"
123,116502,"prior_and_posterior","hair color",0,"makes the animals&quotechar hair brown",8,"prior","Q681",NA,"compound","make the animals&quotechar hair brown","rare","zoovs",0,"animals&quotechar hair"
123,116502,"prior_and_posterior","hair color",0,"makes the animals&quotechar hair brown",8,"prior","Q681",NA,"compound","make the animals&quotechar hair brown","rare","zoovs",0.1,"animals&quotechar hair"
123,116502,"prior_and_posterior","hair color",0,"makes the animals&quotechar hair brown",8,"prior","Q681",NA,"compound","make the animals&quotechar hair brown","rare","zoovs",0.03,"animals&quotechar hair"
123,116502,"prior_and_posterior","hair color",0,"makes the animals&quotechar hair brown",8,"prior","Q681",NA,"compound","make the animals&quotechar hair brown","rare","zoovs",0.03,"animals&quotechar hair"
124,94168,"prior_and_posterior","hair color",0,"makes the animals&quotechar hair brown",2,"prior","A325",NA,"compound","make the animals&quotechar hair brown","accidental","morseths",0.06,"animals&quotechar hair"
124,94168,"prior_and_posterior","hair color",0,"makes the animals&quotechar hair brown",2,"prior","A325",NA,"compound","make the animals&quotechar hair brown","accidental","morseths",0.12,"animals&quotechar hair"
124,94168,"prior_and_posterior","hair color",0,"makes the animals&quotechar hair brown",2,"prior","A325",NA,"compound","make the animals&quotechar hair brown","accidental","morseths",0.07,"animals&quotechar hair"
124,94168,"prior_and_posterior","hair color",0,"makes the animals&quotechar hair brown",2,"prior","A325",NA,"compound","make the animals&quotechar hair brown","accidental","morseths",0.08,"animals&quotechar hair"
125,165347,"prior_and_posterior","salivate",0,"makes the animals salivate",3,"prior","X137",NA,"compound","make the animals salivate","accidental","trufts",0.11,"animals"
125,165347,"prior_and_posterior","salivate",0,"makes the animals salivate",3,"prior","X137",NA,"compound","make the animals salivate","accidental","trufts",0.06,"animals"
125,165347,"prior_and_posterior","salivate",0,"makes the animals salivate",3,"prior","X137",NA,"compound","make the animals salivate","accidental","trufts",0.08,"animals"
125,165347,"prior_and_posterior","salivate",0,"makes the animals salivate",3,"prior","X137",NA,"compound","make the animals salivate","accidental","trufts",0.05,"animals"
126,48525,"prior_and_posterior","alert",0,"makes the animals alert",4,"prior","Z142",NA,"compound","make the animals alert","accidental","zoovs",0.12,"animals"
126,48525,"prior_and_posterior","alert",0,"makes the animals alert",4,"prior","Z142",NA,"compound","make the animals alert","accidental","zoovs",0.19,"animals"
126,48525,"prior_and_posterior","alert",0,"makes the animals alert",4,"prior","Z142",NA,"compound","make the animals alert","accidental","zoovs",0.12,"animals"
126,48525,"prior_and_posterior","alert",0,"makes the animals alert",4,"prior","Z142",NA,"compound","make the animals alert","accidental","zoovs",0.09,"animals"
127,98696,"prior_and_posterior","alert",0,"makes the animals alert",1,"speaker","X137",20,"compound","make the animals alert","accidental","glippets",1,"animals"
128,85795,"prior_and_posterior","hair color",0,"makes the animals&quotechar hair brown",1,"speaker","Q681",20,"compound","make the animals&quotechar hair brown","rare","mooks",1,"animals&quotechar hair"
129,123629,"prior_and_posterior","hair color",0,"makes the animals&quotechar hair brown",1,"prior","X137",NA,"compound","make the animals&quotechar hair brown","rare","stups",0,"animals&quotechar hair"
129,123629,"prior_and_posterior","hair color",0,"makes the animals&quotechar hair brown",1,"prior","X137",NA,"compound","make the animals&quotechar hair brown","rare","stups",0,"animals&quotechar hair"
129,123629,"prior_and_posterior","hair color",0,"makes the animals&quotechar hair brown",1,"prior","X137",NA,"compound","make the animals&quotechar hair brown","rare","stups",0.04,"animals&quotechar hair"
129,123629,"prior_and_posterior","hair color",0,"makes the animals&quotechar hair brown",1,"prior","X137",NA,"compound","make the animals&quotechar hair brown","rare","stups",0.01,"animals&quotechar hair"
130,180058,"prior_and_posterior","hair color",0,"makes the animals&quotechar hair brown",9,"prior","Z142",NA,"compound","make the animals&quotechar hair brown","rare","luzaks",0,"animals&quotechar hair"
130,180058,"prior_and_posterior","hair color",0,"makes the animals&quotechar hair brown",9,"prior","Z142",NA,"compound","make the animals&quotechar hair brown","rare","luzaks",0.27,"animals&quotechar hair"
130,180058,"prior_and_posterior","hair color",0,"makes the animals&quotechar hair brown",9,"prior","Z142",NA,"compound","make the animals&quotechar hair brown","rare","luzaks",0,"animals&quotechar hair"
130,180058,"prior_and_posterior","hair color",0,"makes the animals&quotechar hair brown",9,"prior","Z142",NA,"compound","make the animals&quotechar hair brown","rare","luzaks",0,"animals&quotechar hair"
131,121250,"prior_and_posterior","salivate",0,"makes the animals salivate",1,"speaker","A325",20,"compound","make the animals salivate","accidental","reesles",1,"animals"
132,48221,"prior_and_posterior","salivate",0,"makes the animals salivate",9,"prior","Z142",NA,"compound","make the animals salivate","accidental","daiths",0.12,"animals"
132,48221,"prior_and_posterior","salivate",0,"makes the animals salivate",9,"prior","Z142",NA,"compound","make the animals salivate","accidental","daiths",0.16,"animals"
132,48221,"prior_and_posterior","salivate",0,"makes the animals salivate",9,"prior","Z142",NA,"compound","make the animals salivate","accidental","daiths",0.06,"animals"
132,48221,"prior_and_posterior","salivate",0,"makes the animals salivate",9,"prior","Z142",NA,"compound","make the animals salivate","accidental","daiths",0.11,"animals"
133,100633,"prior_and_posterior","salivate",0,"makes the animals salivate",1,"prior","Q681",NA,"compound","make the animals salivate","accidental","dorbs",0.15,"animals"
133,100633,"prior_and_posterior","salivate",0,"makes the animals salivate",1,"prior","Q681",NA,"compound","make the animals salivate","accidental","dorbs",0.29,"animals"
133,100633,"prior_and_posterior","salivate",0,"makes the animals salivate",1,"prior","Q681",NA,"compound","make the animals salivate","accidental","dorbs",0.16,"animals"
133,100633,"prior_and_posterior","salivate",0,"makes the animals salivate",1,"prior","Q681",NA,"compound","make the animals salivate","accidental","dorbs",0.18,"animals"
134,177268,"prior_and_posterior","salivate",0,"makes the animals salivate",5,"speaker","X137",20,"compound","make the animals salivate","accidental","kazzes",1,"animals"
135,110313,"prior_and_posterior","alert",0,"makes the animals alert",5,"speaker","Z142",20,"compound","make the animals alert","accidental","luzaks",1,"animals"
136,88440,"prior_and_posterior","alert",0,"makes the animals alert",6,"prior","A325",NA,"compound","make the animals alert","rare","frams",0,"animals"
136,88440,"prior_and_posterior","alert",0,"makes the animals alert",6,"prior","A325",NA,"compound","make the animals alert","rare","frams",0,"animals"
136,88440,"prior_and_posterior","alert",0,"makes the animals alert",6,"prior","A325",NA,"compound","make the animals alert","rare","frams",0,"animals"
136,88440,"prior_and_posterior","alert",0,"makes the animals alert",6,"prior","A325",NA,"compound","make the animals alert","rare","frams",0,"animals"
137,11824,"prior_and_posterior","hair color",0,"makes the animals&quotechar hair brown",8,"prior","Q681",NA,"compound","make the animals&quotechar hair brown","rare","kazzes",0.16,"animals&quotechar hair"
137,11824,"prior_and_posterior","hair color",0,"makes the animals&quotechar hair brown",8,"prior","Q681",NA,"compound","make the animals&quotechar hair brown","rare","kazzes",0.25,"animals&quotechar hair"
137,11824,"prior_and_posterior","hair color",0,"makes the animals&quotechar hair brown",8,"prior","Q681",NA,"compound","make the animals&quotechar hair brown","rare","kazzes",0.35,"animals&quotechar hair"
137,11824,"prior_and_posterior","hair color",0,"makes the animals&quotechar hair brown",8,"prior","Q681",NA,"compound","make the animals&quotechar hair brown","rare","kazzes",0.51,"animals&quotechar hair"
138,65927,"prior_and_posterior","hair color",0,"makes the animals&quotechar hair brown",5,"prior","X137",NA,"compound","make the animals&quotechar hair brown","rare","blins",0,"animals&quotechar hair"
138,65927,"prior_and_posterior","hair color",0,"makes the animals&quotechar hair brown",5,"prior","X137",NA,"compound","make the animals&quotechar hair brown","rare","blins",0,"animals&quotechar hair"
138,65927,"prior_and_posterior","hair color",0,"makes the animals&quotechar hair brown",5,"prior","X137",NA,"compound","make the animals&quotechar hair brown","rare","blins",0,"animals&quotechar hair"
138,65927,"prior_and_posterior","hair color",0,"makes the animals&quotechar hair brown",5,"prior","X137",NA,"compound","make the animals&quotechar hair brown","rare","blins",0,"animals&quotechar hair"
139,99423,"prior_and_posterior","hair color",0,"makes the animals&quotechar hair brown",6,"prior","X137",NA,"compound","make the animals&quotechar hair brown","rare","plovs",0,"animals&quotechar hair"
139,99423,"prior_and_posterior","hair color",0,"makes the animals&quotechar hair brown",6,"prior","X137",NA,"compound","make the animals&quotechar hair brown","rare","plovs",0.16,"animals&quotechar hair"
139,99423,"prior_and_posterior","hair color",0,"makes the animals&quotechar hair brown",6,"prior","X137",NA,"compound","make the animals&quotechar hair brown","rare","plovs",0,"animals&quotechar hair"
139,99423,"prior_and_posterior","hair color",0,"makes the animals&quotechar hair brown",6,"prior","X137",NA,"compound","make the animals&quotechar hair brown","rare","plovs",0,"animals&quotechar hair"
140,110791,"prior_and_posterior","salivate",0,"makes the animals salivate",6,"prior","Q681",NA,"compound","make the animals salivate","rare","thups",0,"animals"
140,110791,"prior_and_posterior","salivate",0,"makes the animals salivate",6,"prior","Q681",NA,"compound","make the animals salivate","rare","thups",0,"animals"
140,110791,"prior_and_posterior","salivate",0,"makes the animals salivate",6,"prior","Q681",NA,"compound","make the animals salivate","rare","thups",0,"animals"
140,110791,"prior_and_posterior","salivate",0,"makes the animals salivate",6,"prior","Q681",NA,"compound","make the animals salivate","rare","thups",0,"animals"
141,81553,"prior_and_posterior","salivate",0,"makes the animals salivate",9,"speaker","X137",20,"compound","make the animals salivate","rare","feps",1,"animals"
142,91491,"prior_and_posterior","salivate",0,"makes the animals salivate",4,"prior","Z142",NA,"compound","make the animals salivate","accidental","frams",0.17,"animals"
142,91491,"prior_and_posterior","salivate",0,"makes the animals salivate",4,"prior","Z142",NA,"compound","make the animals salivate","accidental","frams",0.1,"animals"
142,91491,"prior_and_posterior","salivate",0,"makes the animals salivate",4,"prior","Z142",NA,"compound","make the animals salivate","accidental","frams",0.2,"animals"
142,91491,"prior_and_posterior","salivate",0,"makes the animals salivate",4,"prior","Z142",NA,"compound","make the animals salivate","accidental","frams",0.21,"animals"
143,98035,"prior_and_posterior","salivate",0,"makes the animals salivate",3,"prior","Q681",NA,"compound","make the animals salivate","rare","kazzes",0,"animals"
143,98035,"prior_and_posterior","salivate",0,"makes the animals salivate",3,"prior","Q681",NA,"compound","make the animals salivate","rare","kazzes",0,"animals"
143,98035,"prior_and_posterior","salivate",0,"makes the animals salivate",3,"prior","Q681",NA,"compound","make the animals salivate","rare","kazzes",0,"animals"
143,98035,"prior_and_posterior","salivate",0,"makes the animals salivate",3,"prior","Q681",NA,"compound","make the animals salivate","rare","kazzes",0.14,"animals"
144,188350,"prior_and_posterior","alert",0,"makes the animals alert",4,"prior","Z142",NA,"compound","make the animals alert","rare","morseths",0.1,"animals"
144,188350,"prior_and_posterior","alert",0,"makes the animals alert",4,"prior","Z142",NA,"compound","make the animals alert","rare","morseths",0,"animals"
144,188350,"prior_and_posterior","alert",0,"makes the animals alert",4,"prior","Z142",NA,"compound","make the animals alert","rare","morseths",0,"animals"
144,188350,"prior_and_posterior","alert",0,"makes the animals alert",4,"prior","Z142",NA,"compound","make the animals alert","rare","morseths",0,"animals"
145,124809,"prior_and_posterior","alert",0,"makes the animals alert",3,"prior","Q681",NA,"compound","make the animals alert","rare","daiths",0,"animals"
145,124809,"prior_and_posterior","alert",0,"makes the animals alert",3,"prior","Q681",NA,"compound","make the animals alert","rare","daiths",0,"animals"
145,124809,"prior_and_posterior","alert",0,"makes the animals alert",3,"prior","Q681",NA,"compound","make the animals alert","rare","daiths",0,"animals"
145,124809,"prior_and_posterior","alert",0,"makes the animals alert",3,"prior","Q681",NA,"compound","make the animals alert","rare","daiths",0,"animals"
146,87045,"prior_and_posterior","alert",0,"makes the animals alert",9,"prior","Q681",NA,"compound","make the animals alert","accidental","wugs",0.16,"animals"
146,87045,"prior_and_posterior","alert",0,"makes the animals alert",9,"prior","Q681",NA,"compound","make the animals alert","accidental","wugs",0.16,"animals"
146,87045,"prior_and_posterior","alert",0,"makes the animals alert",9,"prior","Q681",NA,"compound","make the animals alert","accidental","wugs",0.08,"animals"
146,87045,"prior_and_posterior","alert",0,"makes the animals alert",9,"prior","Q681",NA,"compound","make the animals alert","accidental","wugs",0.08,"animals"
147,39147,"prior_and_posterior","salivate",0,"makes the animals salivate",2,"prior","A325",NA,"compound","make the animals salivate","accidental","grinks",0.17,"animals"
147,39147,"prior_and_posterior","salivate",0,"makes the animals salivate",2,"prior","A325",NA,"compound","make the animals salivate","accidental","grinks",0.08,"animals"
147,39147,"prior_and_posterior","salivate",0,"makes the animals salivate",2,"prior","A325",NA,"compound","make the animals salivate","accidental","grinks",0.14,"animals"
147,39147,"prior_and_posterior","salivate",0,"makes the animals salivate",2,"prior","A325",NA,"compound","make the animals salivate","accidental","grinks",0.1,"animals"
148,75534,"prior_and_posterior","salivate",0,"makes the animals salivate",2,"prior","X137",NA,"compound","make the animals salivate","rare","ollers",NA,"animals"
148,75534,"prior_and_posterior","salivate",0,"makes the animals salivate",2,"prior","X137",NA,"compound","make the animals salivate","rare","ollers",NA,"animals"
148,75534,"prior_and_posterior","salivate",0,"makes the animals salivate",2,"prior","X137",NA,"compound","make the animals salivate","rare","ollers",0.05,"animals"
149,128351,"prior_and_posterior","salivate",0,"makes the animals salivate",5,"prior","Z142",NA,"compound","make the animals salivate","rare","reesles",0.17,"animals"
149,128351,"prior_and_posterior","salivate",0,"makes the animals salivate",5,"prior","Z142",NA,"compound","make the animals salivate","rare","reesles",0.03,"animals"
149,128351,"prior_and_posterior","salivate",0,"makes the animals salivate",5,"prior","Z142",NA,"compound","make the animals salivate","rare","reesles",0.13,"animals"
149,128351,"prior_and_posterior","salivate",0,"makes the animals salivate",5,"prior","Z142",NA,"compound","make the animals salivate","rare","reesles",0.13,"animals"
150,96735,"prior_and_posterior","hair color",0,"makes the animals&quotechar hair brown",9,"prior","Z142",NA,"compound","make the animals&quotechar hair brown","rare","javs",0.02,"animals&quotechar hair"
150,96735,"prior_and_posterior","hair color",0,"makes the animals&quotechar hair brown",9,"prior","Z142",NA,"compound","make the animals&quotechar hair brown","rare","javs",0.17,"animals&quotechar hair"
150,96735,"prior_and_posterior","hair color",0,"makes the animals&quotechar hair brown",9,"prior","Z142",NA,"compound","make the animals&quotechar hair brown","rare","javs",0.17,"animals&quotechar hair"
150,96735,"prior_and_posterior","hair color",0,"makes the animals&quotechar hair brown",9,"prior","Z142",NA,"compound","make the animals&quotechar hair brown","rare","javs",0.01,"animals&quotechar hair"
151,51832,"prior_and_posterior","hair color",0,"makes the animals&quotechar hair brown",4,"prior","A325",NA,"compound","make the animals&quotechar hair brown","accidental","luzaks",0.13,"animals&quotechar hair"
151,51832,"prior_and_posterior","hair color",0,"makes the animals&quotechar hair brown",4,"prior","A325",NA,"compound","make the animals&quotechar hair brown","accidental","luzaks",0.13,"animals&quotechar hair"
151,51832,"prior_and_posterior","hair color",0,"makes the animals&quotechar hair brown",4,"prior","A325",NA,"compound","make the animals&quotechar hair brown","accidental","luzaks",0.13,"animals&quotechar hair"
151,51832,"prior_and_posterior","hair color",0,"makes the animals&quotechar hair brown",4,"prior","A325",NA,"compound","make the animals&quotechar hair brown","accidental","luzaks",0.13,"animals&quotechar hair"
152,69804,"prior_and_posterior","hair color",0,"makes the animals&quotechar hair brown",5,"speaker","Q681",20,"compound","make the animals&quotechar hair brown","accidental","feps",1,"animals&quotechar hair"
153,180311,"prior_and_posterior","alert",0,"makes the animals alert",2,"prior","Z142",NA,"compound","make the animals alert","accidental","reesles",0.15,"animals"
153,180311,"prior_and_posterior","alert",0,"makes the animals alert",2,"prior","Z142",NA,"compound","make the animals alert","accidental","reesles",0.07,"animals"
153,180311,"prior_and_posterior","alert",0,"makes the animals alert",2,"prior","Z142",NA,"compound","make the animals alert","accidental","reesles",0.06,"animals"
153,180311,"prior_and_posterior","alert",0,"makes the animals alert",2,"prior","Z142",NA,"compound","make the animals alert","accidental","reesles",0.11,"animals"
154,176810,"prior_and_posterior","alert",0,"makes the animals alert",1,"speaker","X137",20,"compound","make the animals alert","rare","reesles",1,"animals"
155,181558,"prior_and_posterior","alert",0,"makes the animals alert",8,"prior","Q681",NA,"compound","make the animals alert","accidental","grinks",0.06,"animals"
155,181558,"prior_and_posterior","alert",0,"makes the animals alert",8,"prior","Q681",NA,"compound","make the animals alert","accidental","grinks",0.16,"animals"
155,181558,"prior_and_posterior","alert",0,"makes the animals alert",8,"prior","Q681",NA,"compound","make the animals alert","accidental","grinks",0.07,"animals"
155,181558,"prior_and_posterior","alert",0,"makes the animals alert",8,"prior","Q681",NA,"compound","make the animals alert","accidental","grinks",0.16,"animals"
156,121785,"prior_and_posterior","hair color",0,"makes the animals&quotechar hair brown",2,"prior","Q681",NA,"compound","make the animals&quotechar hair brown","accidental","krivels",0.09,"animals&quotechar hair"
156,121785,"prior_and_posterior","hair color",0,"makes the animals&quotechar hair brown",2,"prior","Q681",NA,"compound","make the animals&quotechar hair brown","accidental","krivels",0.04,"animals&quotechar hair"
156,121785,"prior_and_posterior","hair color",0,"makes the animals&quotechar hair brown",2,"prior","Q681",NA,"compound","make the animals&quotechar hair brown","accidental","krivels",0.07,"animals&quotechar hair"
156,121785,"prior_and_posterior","hair color",0,"makes the animals&quotechar hair brown",2,"prior","Q681",NA,"compound","make the animals&quotechar hair brown","accidental","krivels",0.1,"animals&quotechar hair"
157,27512,"prior_and_posterior","hair color",0,"makes the animals&quotechar hair brown",4,"prior","Z142",NA,"compound","make the animals&quotechar hair brown","rare","ackles",0.28,"animals&quotechar hair"
157,27512,"prior_and_posterior","hair color",0,"makes the animals&quotechar hair brown",4,"prior","Z142",NA,"compound","make the animals&quotechar hair brown","rare","ackles",0.29,"animals&quotechar hair"
157,27512,"prior_and_posterior","hair color",0,"makes the animals&quotechar hair brown",4,"prior","Z142",NA,"compound","make the animals&quotechar hair brown","rare","ackles",0.36,"animals&quotechar hair"
157,27512,"prior_and_posterior","hair color",0,"makes the animals&quotechar hair brown",4,"prior","Z142",NA,"compound","make the animals&quotechar hair brown","rare","ackles",0.3,"animals&quotechar hair"
158,80461,"prior_and_posterior","hair color",0,"makes the animals&quotechar hair brown",1,"speaker","Q681",20,"compound","make the animals&quotechar hair brown","accidental","kazzes",1,"animals&quotechar hair"
159,200998,"prior_and_posterior","salivate",0,"makes the animals salivate",3,"speaker","Z142",20,"compound","make the animals salivate","accidental","daiths",1,"animals"
160,319240,"prior_and_posterior","salivate",0,"makes the animals salivate",1,"speaker","A325",20,"compound","make the animals salivate","rare","wugs",0,"animals"
161,88708,"prior_and_posterior","salivate",0,"makes the animals salivate",4,"speaker","Q681",20,"compound","make the animals salivate","rare","reesles",1,"animals"
162,79201,"prior_and_posterior","alert",0,"makes the animals alert",8,"speaker","X137",20,"compound","make the animals alert","rare","daiths",1,"animals"
163,175285,"prior_and_posterior","alert",0,"makes the animals alert",2,"prior","X137",NA,"compound","make the animals alert","rare","ollers",0.03,"animals"
163,175285,"prior_and_posterior","alert",0,"makes the animals alert",2,"prior","X137",NA,"compound","make the animals alert","rare","ollers",0.03,"animals"
163,175285,"prior_and_posterior","alert",0,"makes the animals alert",2,"prior","X137",NA,"compound","make the animals alert","rare","ollers",0.03,"animals"
163,175285,"prior_and_posterior","alert",0,"makes the animals alert",2,"prior","X137",NA,"compound","make the animals alert","rare","ollers",0.01,"animals"
164,103979,"prior_and_posterior","alert",0,"makes the animals alert",5,"prior","X137",NA,"compound","make the animals alert","rare","mooks",0.01,"animals"
164,103979,"prior_and_posterior","alert",0,"makes the animals alert",5,"prior","X137",NA,"compound","make the animals alert","rare","mooks",0.08,"animals"
164,103979,"prior_and_posterior","alert",0,"makes the animals alert",5,"prior","X137",NA,"compound","make the animals alert","rare","mooks",0.02,"animals"
164,103979,"prior_and_posterior","alert",0,"makes the animals alert",5,"prior","X137",NA,"compound","make the animals alert","rare","mooks",0.02,"animals"
165,67842,"prior_and_posterior","alert",0,"makes the animals alert",2,"prior","Z142",NA,"compound","make the animals alert","rare","kazzes",0,"animals"
165,67842,"prior_and_posterior","alert",0,"makes the animals alert",2,"prior","Z142",NA,"compound","make the animals alert","rare","kazzes",0,"animals"
165,67842,"prior_and_posterior","alert",0,"makes the animals alert",2,"prior","Z142",NA,"compound","make the animals alert","rare","kazzes",0,"animals"
165,67842,"prior_and_posterior","alert",0,"makes the animals alert",2,"prior","Z142",NA,"compound","make the animals alert","rare","kazzes",0,"animals"
166,71340,"prior_and_posterior","alert",0,"makes the animals alert",5,"prior","Q681",NA,"compound","make the animals alert","rare","grinks",0,"animals"
166,71340,"prior_and_posterior","alert",0,"makes the animals alert",5,"prior","Q681",NA,"compound","make the animals alert","rare","grinks",0.1,"animals"
166,71340,"prior_and_posterior","alert",0,"makes the animals alert",5,"prior","Q681",NA,"compound","make the animals alert","rare","grinks",0,"animals"
166,71340,"prior_and_posterior","alert",0,"makes the animals alert",5,"prior","Q681",NA,"compound","make the animals alert","rare","grinks",0,"animals"
167,111085,"prior_and_posterior","alert",0,"makes the animals alert",4,"speaker","Q681",20,"compound","make the animals alert","rare","javs",1,"animals"
168,165002,"prior_and_posterior","alert",0,"makes the animals alert",7,"speaker","A325",20,"compound","make the animals alert","accidental","feps",1,"animals"
169,85443,"prior_and_posterior","hair color",0,"makes the animals&quotechar hair brown",8,"speaker","A325",20,"compound","make the animals&quotechar hair brown","accidental","luzaks",0,"animals&quotechar hair"
170,121784,"prior_and_posterior","salivate",0,"makes the animals salivate",9,"prior","A325",NA,"compound","make the animals salivate","rare","trufts",0.01,"animals"
170,121784,"prior_and_posterior","salivate",0,"makes the animals salivate",9,"prior","A325",NA,"compound","make the animals salivate","rare","trufts",0.01,"animals"
170,121784,"prior_and_posterior","salivate",0,"makes the animals salivate",9,"prior","A325",NA,"compound","make the animals salivate","rare","trufts",0.01,"animals"
170,121784,"prior_and_posterior","salivate",0,"makes the animals salivate",9,"prior","A325",NA,"compound","make the animals salivate","rare","trufts",0.01,"animals"
171,153146,"prior_and_posterior","alert",0,"makes the animals alert",7,"prior","A325",NA,"compound","make the animals alert","rare","moxes",0.15,"animals"
171,153146,"prior_and_posterior","alert",0,"makes the animals alert",7,"prior","A325",NA,"compound","make the animals alert","rare","moxes",0,"animals"
171,153146,"prior_and_posterior","alert",0,"makes the animals alert",7,"prior","A325",NA,"compound","make the animals alert","rare","moxes",0,"animals"
171,153146,"prior_and_posterior","alert",0,"makes the animals alert",7,"prior","A325",NA,"compound","make the animals alert","rare","moxes",0,"animals"
172,101037,"prior_and_posterior","alert",0,"makes the animals alert",5,"prior","X137",NA,"compound","make the animals alert","accidental","sapers",0.1,"animals"
172,101037,"prior_and_posterior","alert",0,"makes the animals alert",5,"prior","X137",NA,"compound","make the animals alert","accidental","sapers",0.06,"animals"
172,101037,"prior_and_posterior","alert",0,"makes the animals alert",5,"prior","X137",NA,"compound","make the animals alert","accidental","sapers",0.06,"animals"
172,101037,"prior_and_posterior","alert",0,"makes the animals alert",5,"prior","X137",NA,"compound","make the animals alert","accidental","sapers",0.17,"animals"
173,90955,"prior_and_posterior","alert",0,"makes the animals alert",7,"speaker","Z142",20,"compound","make the animals alert","accidental","stups",0,"animals"
174,203987,"prior_and_posterior","salivate",0,"makes the animals salivate",6,"prior","Q681",NA,"compound","make the animals salivate","rare","ackles",0.11,"animals"
174,203987,"prior_and_posterior","salivate",0,"makes the animals salivate",6,"prior","Q681",NA,"compound","make the animals salivate","rare","ackles",0,"animals"
174,203987,"prior_and_posterior","salivate",0,"makes the animals salivate",6,"prior","Q681",NA,"compound","make the animals salivate","rare","ackles",0,"animals"
174,203987,"prior_and_posterior","salivate",0,"makes the animals salivate",6,"prior","Q681",NA,"compound","make the animals salivate","rare","ackles",0.22,"animals"
175,97184,"prior_and_posterior","salivate",0,"makes the animals salivate",9,"speaker","Z142",20,"compound","make the animals salivate","rare","luzaks",1,"animals"
176,51271,"prior_and_posterior","salivate",0,"makes the animals salivate",2,"speaker","Z142",20,"compound","make the animals salivate","accidental","thups",1,"animals"
177,87113,"prior_and_posterior","salivate",0,"makes the animals salivate",2,"prior","Z142",NA,"compound","make the animals salivate","rare","ollers",0,"animals"
177,87113,"prior_and_posterior","salivate",0,"makes the animals salivate",2,"prior","Z142",NA,"compound","make the animals salivate","rare","ollers",0.03,"animals"
177,87113,"prior_and_posterior","salivate",0,"makes the animals salivate",2,"prior","Z142",NA,"compound","make the animals salivate","rare","ollers",0,"animals"
177,87113,"prior_and_posterior","salivate",0,"makes the animals salivate",2,"prior","Z142",NA,"compound","make the animals salivate","rare","ollers",0,"animals"
178,53903,"prior_and_posterior","salivate",0,"makes the animals salivate",6,"prior","A325",NA,"compound","make the animals salivate","rare","thups",0,"animals"
178,53903,"prior_and_posterior","salivate",0,"makes the animals salivate",6,"prior","A325",NA,"compound","make the animals salivate","rare","thups",0,"animals"
178,53903,"prior_and_posterior","salivate",0,"makes the animals salivate",6,"prior","A325",NA,"compound","make the animals salivate","rare","thups",0,"animals"
178,53903,"prior_and_posterior","salivate",0,"makes the animals salivate",6,"prior","A325",NA,"compound","make the animals salivate","rare","thups",0.07,"animals"
179,153700,"prior_and_posterior","hair color",0,"makes the animals&quotechar hair brown",6,"speaker","A325",20,"compound","make the animals&quotechar hair brown","accidental","lorches",0,"animals&quotechar hair"
180,64484,"prior_and_posterior","alert",0,"makes the animals alert",3,"prior","A325",NA,"compound","make the animals alert","rare","feps",0,"animals"
180,64484,"prior_and_posterior","alert",0,"makes the animals alert",3,"prior","A325",NA,"compound","make the animals alert","rare","feps",0,"animals"
180,64484,"prior_and_posterior","alert",0,"makes the animals alert",3,"prior","A325",NA,"compound","make the animals alert","rare","feps",0,"animals"
180,64484,"prior_and_posterior","alert",0,"makes the animals alert",3,"prior","A325",NA,"compound","make the animals alert","rare","feps",0,"animals"
181,102604,"prior_and_posterior","hair color",0,"makes the animals&quotechar hair brown",4,"prior","Z142",NA,"compound","make the animals&quotechar hair brown","rare","kweps",0,"animals&quotechar hair"
181,102604,"prior_and_posterior","hair color",0,"makes the animals&quotechar hair brown",4,"prior","Z142",NA,"compound","make the animals&quotechar hair brown","rare","kweps",0,"animals&quotechar hair"
181,102604,"prior_and_posterior","hair color",0,"makes the animals&quotechar hair brown",4,"prior","Z142",NA,"compound","make the animals&quotechar hair brown","rare","kweps",0,"animals&quotechar hair"
181,102604,"prior_and_posterior","hair color",0,"makes the animals&quotechar hair brown",4,"prior","Z142",NA,"compound","make the animals&quotechar hair brown","rare","kweps",0,"animals&quotechar hair"
182,55775,"prior_and_posterior","hair color",0,"makes the animals&quotechar hair brown",4,"prior","Z142",NA,"compound","make the animals&quotechar hair brown","accidental","sapers",0.06,"animals&quotechar hair"
182,55775,"prior_and_posterior","hair color",0,"makes the animals&quotechar hair brown",4,"prior","Z142",NA,"compound","make the animals&quotechar hair brown","accidental","sapers",0.05,"animals&quotechar hair"
182,55775,"prior_and_posterior","hair color",0,"makes the animals&quotechar hair brown",4,"prior","Z142",NA,"compound","make the animals&quotechar hair brown","accidental","sapers",0.04,"animals&quotechar hair"
182,55775,"prior_and_posterior","hair color",0,"makes the animals&quotechar hair brown",4,"prior","Z142",NA,"compound","make the animals&quotechar hair brown","accidental","sapers",0.09,"animals&quotechar hair"
183,65865,"prior_and_posterior","salivate",0,"makes the animals salivate",3,"speaker","Q681",20,"compound","make the animals salivate","accidental","glippets",1,"animals"
184,72843,"prior_and_posterior","salivate",0,"makes the animals salivate",3,"speaker","X137",20,"compound","make the animals salivate","rare","plovs",1,"animals"
185,127521,"prior_and_posterior","hair color",0,"makes the animals&quotechar hair brown",1,"prior","Q681",NA,"compound","make the animals&quotechar hair brown","accidental","trufts",0.19,"animals&quotechar hair"
185,127521,"prior_and_posterior","hair color",0,"makes the animals&quotechar hair brown",1,"prior","Q681",NA,"compound","make the animals&quotechar hair brown","accidental","trufts",0.29,"animals&quotechar hair"
185,127521,"prior_and_posterior","hair color",0,"makes the animals&quotechar hair brown",1,"prior","Q681",NA,"compound","make the animals&quotechar hair brown","accidental","trufts",0.43,"animals&quotechar hair"
185,127521,"prior_and_posterior","hair color",0,"makes the animals&quotechar hair brown",1,"prior","Q681",NA,"compound","make the animals&quotechar hair brown","accidental","trufts",0.58,"animals&quotechar hair"
186,198456,"prior_and_posterior","hair color",0,"makes the animals&quotechar hair brown",4,"prior","Z142",NA,"compound","make the animals&quotechar hair brown","accidental","stups",0.1,"animals&quotechar hair"
186,198456,"prior_and_posterior","hair color",0,"makes the animals&quotechar hair brown",4,"prior","Z142",NA,"compound","make the animals&quotechar hair brown","accidental","stups",0.1,"animals&quotechar hair"
186,198456,"prior_and_posterior","hair color",0,"makes the animals&quotechar hair brown",4,"prior","Z142",NA,"compound","make the animals&quotechar hair brown","accidental","stups",0.24,"animals&quotechar hair"
186,198456,"prior_and_posterior","hair color",0,"makes the animals&quotechar hair brown",4,"prior","Z142",NA,"compound","make the animals&quotechar hair brown","accidental","stups",0.27,"animals&quotechar hair"
187,72973,"prior_and_posterior","hair color",0,"makes the animals&quotechar hair brown",6,"speaker","Z142",20,"compound","make the animals&quotechar hair brown","accidental","feps",1,"animals&quotechar hair"
188,268589,"prior_and_posterior","hair color",0,"makes the animals&quotechar hair brown",3,"prior","A325",NA,"compound","make the animals&quotechar hair brown","accidental","stups",0.23,"animals&quotechar hair"
188,268589,"prior_and_posterior","hair color",0,"makes the animals&quotechar hair brown",3,"prior","A325",NA,"compound","make the animals&quotechar hair brown","accidental","stups",0.16,"animals&quotechar hair"
188,268589,"prior_and_posterior","hair color",0,"makes the animals&quotechar hair brown",3,"prior","A325",NA,"compound","make the animals&quotechar hair brown","accidental","stups",0.22,"animals&quotechar hair"
188,268589,"prior_and_posterior","hair color",0,"makes the animals&quotechar hair brown",3,"prior","A325",NA,"compound","make the animals&quotechar hair brown","accidental","stups",0.16,"animals&quotechar hair"
189,49205,"prior_and_posterior","alert",0,"makes the animals alert",5,"speaker","Z142",20,"compound","make the animals alert","rare","kweps",1,"animals"
190,48001,"prior_and_posterior","alert",0,"makes the animals alert",5,"prior","Z142",NA,"compound","make the animals alert","rare","ollers",0,"animals"
190,48001,"prior_and_posterior","alert",0,"makes the animals alert",5,"prior","Z142",NA,"compound","make the animals alert","rare","ollers",0,"animals"
190,48001,"prior_and_posterior","alert",0,"makes the animals alert",5,"prior","Z142",NA,"compound","make the animals alert","rare","ollers",0.1,"animals"
190,48001,"prior_and_posterior","alert",0,"makes the animals alert",5,"prior","Z142",NA,"compound","make the animals alert","rare","ollers",0,"animals"
191,134610,"prior_and_posterior","alert",0,"makes the animals alert",5,"prior","A325",NA,"compound","make the animals alert","accidental","kweps",0.06,"animals"
191,134610,"prior_and_posterior","alert",0,"makes the animals alert",5,"prior","A325",NA,"compound","make the animals alert","accidental","kweps",0.08,"animals"
191,134610,"prior_and_posterior","alert",0,"makes the animals alert",5,"prior","A325",NA,"compound","make the animals alert","accidental","kweps",0.07,"animals"
191,134610,"prior_and_posterior","alert",0,"makes the animals alert",5,"prior","A325",NA,"compound","make the animals alert","accidental","kweps",0.04,"animals"
192,87019,"prior_and_posterior","hair color",0,"makes the animals&quotechar hair brown",3,"prior","X137",NA,"compound","make the animals&quotechar hair brown","rare","plovs",0,"animals&quotechar hair"
192,87019,"prior_and_posterior","hair color",0,"makes the animals&quotechar hair brown",3,"prior","X137",NA,"compound","make the animals&quotechar hair brown","rare","plovs",0.01,"animals&quotechar hair"
192,87019,"prior_and_posterior","hair color",0,"makes the animals&quotechar hair brown",3,"prior","X137",NA,"compound","make the animals&quotechar hair brown","rare","plovs",0,"animals&quotechar hair"
192,87019,"prior_and_posterior","hair color",0,"makes the animals&quotechar hair brown",3,"prior","X137",NA,"compound","make the animals&quotechar hair brown","rare","plovs",0.03,"animals&quotechar hair"
193,85895,"prior_and_posterior","hair color",0,"makes the animals&quotechar hair brown",4,"speaker","Q681",20,"compound","make the animals&quotechar hair brown","rare","ackles",1,"animals&quotechar hair"
194,83320,"prior_and_posterior","salivate",0,"makes the animals salivate",9,"prior","Z142",NA,"compound","make the animals salivate","accidental","javs",0.11,"animals"
194,83320,"prior_and_posterior","salivate",0,"makes the animals salivate",9,"prior","Z142",NA,"compound","make the animals salivate","accidental","javs",0.11,"animals"
194,83320,"prior_and_posterior","salivate",0,"makes the animals salivate",9,"prior","Z142",NA,"compound","make the animals salivate","accidental","javs",0.19,"animals"
194,83320,"prior_and_posterior","salivate",0,"makes the animals salivate",9,"prior","Z142",NA,"compound","make the animals salivate","accidental","javs",0.27,"animals"
195,195349,"prior_and_posterior","salivate",0,"makes the animals salivate",7,"speaker","Z142",20,"compound","make the animals salivate","accidental","glippets",0,"animals"
196,89997,"prior_and_posterior","hair color",0,"makes the animals&quotechar hair brown",6,"prior","Z142",NA,"compound","make the animals&quotechar hair brown","accidental","cheebas",0.34,"animals&quotechar hair"
196,89997,"prior_and_posterior","hair color",0,"makes the animals&quotechar hair brown",6,"prior","Z142",NA,"compound","make the animals&quotechar hair brown","accidental","cheebas",0.33,"animals&quotechar hair"
196,89997,"prior_and_posterior","hair color",0,"makes the animals&quotechar hair brown",6,"prior","Z142",NA,"compound","make the animals&quotechar hair brown","accidental","cheebas",0.32,"animals&quotechar hair"
196,89997,"prior_and_posterior","hair color",0,"makes the animals&quotechar hair brown",6,"prior","Z142",NA,"compound","make the animals&quotechar hair brown","accidental","cheebas",0.34,"animals&quotechar hair"
197,73194,"prior_and_posterior","hair color",0,"makes the animals&quotechar hair brown",4,"prior","Q681",NA,"compound","make the animals&quotechar hair brown","rare","plovs",0,"animals&quotechar hair"
197,73194,"prior_and_posterior","hair color",0,"makes the animals&quotechar hair brown",4,"prior","Q681",NA,"compound","make the animals&quotechar hair brown","rare","plovs",0,"animals&quotechar hair"
197,73194,"prior_and_posterior","hair color",0,"makes the animals&quotechar hair brown",4,"prior","Q681",NA,"compound","make the animals&quotechar hair brown","rare","plovs",0,"animals&quotechar hair"
197,73194,"prior_and_posterior","hair color",0,"makes the animals&quotechar hair brown",4,"prior","Q681",NA,"compound","make the animals&quotechar hair brown","rare","plovs",0,"animals&quotechar hair"
198,39286,"prior_and_posterior","alert",0,"makes the animals alert",9,"speaker","A325",20,"compound","make the animals alert","accidental","feps",1,"animals"
199,105058,"prior_and_posterior","alert",0,"makes the animals alert",8,"prior","A325",NA,"compound","make the animals alert","rare","blins",0.02,"animals"
199,105058,"prior_and_posterior","alert",0,"makes the animals alert",8,"prior","A325",NA,"compound","make the animals alert","rare","blins",0,"animals"
199,105058,"prior_and_posterior","alert",0,"makes the animals alert",8,"prior","A325",NA,"compound","make the animals alert","rare","blins",0,"animals"
199,105058,"prior_and_posterior","alert",0,"makes the animals alert",8,"prior","A325",NA,"compound","make the animals alert","rare","blins",0.12,"animals"
200,13554,"prior_and_posterior","hair color",0,"makes the animals&quotechar hair brown",8,"speaker","X137",20,"compound","make the animals&quotechar hair brown","accidental","dorbs",0,"animals&quotechar hair"
201,7462,"prior_and_posterior","hair color",0,"makes the animals&quotechar hair brown",9,"speaker","A325",20,"compound","make the animals&quotechar hair brown","rare","sapers",1,"animals&quotechar hair"
202,127509,"prior_and_posterior","hair color",0,"makes the animals&quotechar hair brown",1,"speaker","X137",20,"compound","make the animals&quotechar hair brown","rare","dorbs",1,"animals&quotechar hair"
203,126814,"prior_and_posterior","hair color",0,"makes the animals&quotechar hair brown",6,"speaker","Z142",20,"compound","make the animals&quotechar hair brown","accidental","reesles",0,"animals&quotechar hair"
204,81833,"prior_and_posterior","salivate",0,"makes the animals salivate",6,"prior","X137",NA,"compound","make the animals salivate","rare","daiths",0,"animals"
204,81833,"prior_and_posterior","salivate",0,"makes the animals salivate",6,"prior","X137",NA,"compound","make the animals salivate","rare","daiths",0,"animals"
204,81833,"prior_and_posterior","salivate",0,"makes the animals salivate",6,"prior","X137",NA,"compound","make the animals salivate","rare","daiths",0,"animals"
204,81833,"prior_and_posterior","salivate",0,"makes the animals salivate",6,"prior","X137",NA,"compound","make the animals salivate","rare","daiths",0,"animals"
205,278755,"prior_and_posterior","salivate",0,"makes the animals salivate",8,"prior","Q681",NA,"compound","make the animals salivate","rare","pangolins",0,"animals"
205,278755,"prior_and_posterior","salivate",0,"makes the animals salivate",8,"prior","Q681",NA,"compound","make the animals salivate","rare","pangolins",0,"animals"
205,278755,"prior_and_posterior","salivate",0,"makes the animals salivate",8,"prior","Q681",NA,"compound","make the animals salivate","rare","pangolins",0.22,"animals"
205,278755,"prior_and_posterior","salivate",0,"makes the animals salivate",8,"prior","Q681",NA,"compound","make the animals salivate","rare","pangolins",0,"animals"
206,79447,"prior_and_posterior","salivate",0,"makes the animals salivate",7,"speaker","Z142",20,"compound","make the animals salivate","accidental","frams",0,"animals"
207,45240,"prior_and_posterior","alert",0,"makes the animals alert",6,"prior","X137",NA,"compound","make the animals alert","accidental","dorbs",0.1,"animals"
207,45240,"prior_and_posterior","alert",0,"makes the animals alert",6,"prior","X137",NA,"compound","make the animals alert","accidental","dorbs",0.06,"animals"
207,45240,"prior_and_posterior","alert",0,"makes the animals alert",6,"prior","X137",NA,"compound","make the animals alert","accidental","dorbs",0.1,"animals"
207,45240,"prior_and_posterior","alert",0,"makes the animals alert",6,"prior","X137",NA,"compound","make the animals alert","accidental","dorbs",0.07,"animals"
208,47685,"prior_and_posterior","alert",0,"makes the animals alert",3,"speaker","Z142",20,"compound","make the animals alert","rare","blins",1,"animals"
209,153166,"prior_and_posterior","alert",0,"makes the animals alert",5,"speaker","X137",20,"compound","make the animals alert","accidental","ackles",1,"animals"
210,60576,"prior_and_posterior","salivate",0,"makes the animals salivate",6,"speaker","Z142",20,"compound","make the animals salivate","rare","krivels",1,"animals"
211,46518,"prior_and_posterior","salivate",0,"makes the animals salivate",1,"prior","Q681",NA,"compound","make the animals salivate","rare","feps",0,"animals"
211,46518,"prior_and_posterior","salivate",0,"makes the animals salivate",1,"prior","Q681",NA,"compound","make the animals salivate","rare","feps",0.03,"animals"
211,46518,"prior_and_posterior","salivate",0,"makes the animals salivate",1,"prior","Q681",NA,"compound","make the animals salivate","rare","feps",0,"animals"
211,46518,"prior_and_posterior","salivate",0,"makes the animals salivate",1,"prior","Q681",NA,"compound","make the animals salivate","rare","feps",0.05,"animals"
212,64009,"prior_and_posterior","hair color",0,"makes the animals&quotechar hair brown",5,"speaker","Q681",20,"compound","make the animals&quotechar hair brown","rare","blins",0,"animals&quotechar hair"
213,99746,"prior_and_posterior","hair color",0,"makes the animals&quotechar hair brown",4,"speaker","A325",20,"compound","make the animals&quotechar hair brown","accidental","cheebas",0,"animals&quotechar hair"
214,79474,"prior_and_posterior","hair color",0,"makes the animals&quotechar hair brown",2,"prior","Q681",NA,"compound","make the animals&quotechar hair brown","rare","stups",0.04,"animals&quotechar hair"
214,79474,"prior_and_posterior","hair color",0,"makes the animals&quotechar hair brown",2,"prior","Q681",NA,"compound","make the animals&quotechar hair brown","rare","stups",0,"animals&quotechar hair"
214,79474,"prior_and_posterior","hair color",0,"makes the animals&quotechar hair brown",2,"prior","Q681",NA,"compound","make the animals&quotechar hair brown","rare","stups",0.01,"animals&quotechar hair"
214,79474,"prior_and_posterior","hair color",0,"makes the animals&quotechar hair brown",2,"prior","Q681",NA,"compound","make the animals&quotechar hair brown","rare","stups",0.01,"animals&quotechar hair"
215,78700,"prior_and_posterior","hair color",0,"makes the animals&quotechar hair brown",8,"speaker","A325",20,"compound","make the animals&quotechar hair brown","rare","plovs",0,"animals&quotechar hair"
216,145440,"prior_and_posterior","alert",0,"makes the animals alert",8,"speaker","A325",20,"compound","make the animals alert","accidental","plovs",1,"animals"
217,69670,"prior_and_posterior","alert",0,"makes the animals alert",4,"speaker","Q681",20,"compound","make the animals alert","accidental","kazzes",1,"animals"
218,338545,"prior_and_posterior","alert",0,"makes the animals alert",6,"speaker","A325",20,"compound","make the animals alert","accidental","pangolins",0,"animals"
219,74251,"prior_and_posterior","alert",0,"makes the animals alert",3,"prior","X137",NA,"compound","make the animals alert","rare","grinks",0,"animals"
219,74251,"prior_and_posterior","alert",0,"makes the animals alert",3,"prior","X137",NA,"compound","make the animals alert","rare","grinks",0,"animals"
219,74251,"prior_and_posterior","alert",0,"makes the animals alert",3,"prior","X137",NA,"compound","make the animals alert","rare","grinks",0,"animals"
219,74251,"prior_and_posterior","alert",0,"makes the animals alert",3,"prior","X137",NA,"compound","make the animals alert","rare","grinks",0,"animals"
220,51358,"prior_and_posterior","salivate",0,"makes the animals salivate",8,"speaker","Z142",20,"compound","make the animals salivate","accidental","trufts",1,"animals"
221,107394,"prior_and_posterior","salivate",0,"makes the animals salivate",6,"speaker","A325",20,"compound","make the animals salivate","accidental","taifels",1,"animals"
222,47820,"prior_and_posterior","salivate",0,"makes the animals salivate",7,"prior","Q681",NA,"compound","make the animals salivate","rare","krivels",0.06,"animals"
222,47820,"prior_and_posterior","salivate",0,"makes the animals salivate",7,"prior","Q681",NA,"compound","make the animals salivate","rare","krivels",0.04,"animals"
222,47820,"prior_and_posterior","salivate",0,"makes the animals salivate",7,"prior","Q681",NA,"compound","make the animals salivate","rare","krivels",0.05,"animals"
222,47820,"prior_and_posterior","salivate",0,"makes the animals salivate",7,"prior","Q681",NA,"compound","make the animals salivate","rare","krivels",0.03,"animals"
223,321280,"prior_and_posterior","salivate",0,"makes the animals salivate",8,"speaker","X137",20,"compound","make the animals salivate","accidental","cheebas",0,"animals"
224,40644,"prior_and_posterior","salivate",0,"makes the animals salivate",6,"speaker","A325",20,"compound","make the animals salivate","rare","ollers",1,"animals"
225,53017,"prior_and_posterior","alert",0,"makes the animals alert",6,"speaker","X137",20,"compound","make the animals alert","rare","morseths",0,"animals"
226,36866,"prior_and_posterior","alert",0,"makes the animals alert",9,"speaker","X137",20,"compound","make the animals alert","rare","frams",1,"animals"
227,94542,"prior_and_posterior","alert",0,"makes the animals alert",3,"speaker","Q681",20,"compound","make the animals alert","accidental","moxes",1,"animals"
228,96434,"prior_and_posterior","alert",0,"makes the animals alert",5,"speaker","A325",20,"compound","make the animals alert","accidental","lorches",0,"animals"
229,114806,"prior_and_posterior","alert",0,"makes the animals alert",9,"speaker","Z142",20,"compound","make the animals alert","rare","ollers",1,"animals"
230,92765,"prior_and_posterior","alert",0,"makes the animals alert",4,"prior","A325",NA,"compound","make the animals alert","accidental","kazzes",0.04,"animals"
230,92765,"prior_and_posterior","alert",0,"makes the animals alert",4,"prior","A325",NA,"compound","make the animals alert","accidental","kazzes",0.07,"animals"
230,92765,"prior_and_posterior","alert",0,"makes the animals alert",4,"prior","A325",NA,"compound","make the animals alert","accidental","kazzes",0.08,"animals"
230,92765,"prior_and_posterior","alert",0,"makes the animals alert",4,"prior","A325",NA,"compound","make the animals alert","accidental","kazzes",0.07,"animals"
231,69812,"prior_and_posterior","hair color",0,"makes the animals&quotechar hair brown",3,"prior","Z142",NA,"compound","make the animals&quotechar hair brown","rare","ollers",0,"animals&quotechar hair"
231,69812,"prior_and_posterior","hair color",0,"makes the animals&quotechar hair brown",3,"prior","Z142",NA,"compound","make the animals&quotechar hair brown","rare","ollers",0.12,"animals&quotechar hair"
231,69812,"prior_and_posterior","hair color",0,"makes the animals&quotechar hair brown",3,"prior","Z142",NA,"compound","make the animals&quotechar hair brown","rare","ollers",0,"animals&quotechar hair"
231,69812,"prior_and_posterior","hair color",0,"makes the animals&quotechar hair brown",3,"prior","Z142",NA,"compound","make the animals&quotechar hair brown","rare","ollers",0,"animals&quotechar hair"
232,156932,"prior_and_posterior","salivate",0,"makes the animals salivate",6,"speaker","A325",20,"compound","make the animals salivate","rare","stups",1,"animals"
233,87079,"prior_and_posterior","salivate",0,"makes the animals salivate",7,"speaker","X137",20,"compound","make the animals salivate","accidental","javs",0,"animals"
234,191577,"prior_and_posterior","alert",0,"makes the animals alert",6,"prior","A325",NA,"compound","make the animals alert","accidental","cheebas",0.11,"animals"
234,191577,"prior_and_posterior","alert",0,"makes the animals alert",6,"prior","A325",NA,"compound","make the animals alert","accidental","cheebas",0.1,"animals"
234,191577,"prior_and_posterior","alert",0,"makes the animals alert",6,"prior","A325",NA,"compound","make the animals alert","accidental","cheebas",0.04,"animals"
234,191577,"prior_and_posterior","alert",0,"makes the animals alert",6,"prior","A325",NA,"compound","make the animals alert","accidental","cheebas",0.11,"animals"
235,103915,"prior_and_posterior","hair color",0,"makes the animals&quotechar hair brown",3,"prior","Q681",NA,"compound","make the animals&quotechar hair brown","accidental","dorbs",0.18,"animals&quotechar hair"
235,103915,"prior_and_posterior","hair color",0,"makes the animals&quotechar hair brown",3,"prior","Q681",NA,"compound","make the animals&quotechar hair brown","accidental","dorbs",0.14,"animals&quotechar hair"
235,103915,"prior_and_posterior","hair color",0,"makes the animals&quotechar hair brown",3,"prior","Q681",NA,"compound","make the animals&quotechar hair brown","accidental","dorbs",0.21,"animals&quotechar hair"
235,103915,"prior_and_posterior","hair color",0,"makes the animals&quotechar hair brown",3,"prior","Q681",NA,"compound","make the animals&quotechar hair brown","accidental","dorbs",0.18,"animals&quotechar hair"
236,88354,"prior_and_posterior","hair color",0,"makes the animals&quotechar hair brown",2,"prior","A325",NA,"compound","make the animals&quotechar hair brown","accidental","elleps",0.11,"animals&quotechar hair"
236,88354,"prior_and_posterior","hair color",0,"makes the animals&quotechar hair brown",2,"prior","A325",NA,"compound","make the animals&quotechar hair brown","accidental","elleps",0.15,"animals&quotechar hair"
236,88354,"prior_and_posterior","hair color",0,"makes the animals&quotechar hair brown",2,"prior","A325",NA,"compound","make the animals&quotechar hair brown","accidental","elleps",0.05,"animals&quotechar hair"
236,88354,"prior_and_posterior","hair color",0,"makes the animals&quotechar hair brown",2,"prior","A325",NA,"compound","make the animals&quotechar hair brown","accidental","elleps",0.12,"animals&quotechar hair"
237,13149,"prior_and_posterior","hair color",0,"makes the animals&quotechar hair brown",9,"speaker","Q681",20,"compound","make the animals&quotechar hair brown","accidental","javs",1,"animals&quotechar hair"
238,37919,"prior_and_posterior","hair color",0,"makes the animals&quotechar hair brown",6,"prior","Z142",NA,"compound","make the animals&quotechar hair brown","accidental","wugs",0.15,"animals&quotechar hair"
238,37919,"prior_and_posterior","hair color",0,"makes the animals&quotechar hair brown",6,"prior","Z142",NA,"compound","make the animals&quotechar hair brown","accidental","wugs",0.17,"animals&quotechar hair"
238,37919,"prior_and_posterior","hair color",0,"makes the animals&quotechar hair brown",6,"prior","Z142",NA,"compound","make the animals&quotechar hair brown","accidental","wugs",0.12,"animals&quotechar hair"
