"workerid","rt","trial_type","story","trial_num","target","missing","n_data","condition","planet","frequency","treatment","query","distribution","category","response","unit"
0,45609,"prior_and_posterior","artifact play music",0,"makes the machine play music",2,4,"prior","Z142",-99,"object","make the play music","rare","blins",0.08,"times"
0,45609,"prior_and_posterior","artifact play music",0,"makes the machine play music",2,4,"prior","Z142",-99,"object","make the play music","rare","blins",0.01,"times"
0,45609,"prior_and_posterior","artifact play music",0,"makes the machine play music",2,4,"prior","Z142",-99,"object","make the play music","rare","blins",0.09,"times"
0,45609,"prior_and_posterior","artifact play music",0,"makes the machine play music",2,4,"prior","Z142",-99,"object","make the play music","rare","blins",0,"times"
0,45609,"prior_and_posterior","artifact play music",0,"makes the machine play music",2,4,"prior","Z142",-99,"object","make the play music","rare","blins",0.07,"times"
0,45609,"prior_and_posterior","artifact play music",0,"makes the machine play music",2,4,"prior","Z142",-99,"object","make the play music","rare","blins",0.07,"times"
1,117683,"prior_and_posterior","artifact play music",0,"makes the machine play music",2,4,"prior","A325",-99,"object","make the play music","rare","kazzes",0.01,"times"
1,117683,"prior_and_posterior","artifact play music",0,"makes the machine play music",2,4,"prior","A325",-99,"object","make the play music","rare","kazzes",0,"times"
1,117683,"prior_and_posterior","artifact play music",0,"makes the machine play music",2,4,"prior","A325",-99,"object","make the play music","rare","kazzes",0.01,"times"
1,117683,"prior_and_posterior","artifact play music",0,"makes the machine play music",2,4,"prior","A325",-99,"object","make the play music","rare","kazzes",0.02,"times"
1,117683,"prior_and_posterior","artifact play music",0,"makes the machine play music",2,4,"prior","A325",-99,"object","make the play music","rare","kazzes",0.01,"times"
1,117683,"prior_and_posterior","artifact play music",0,"makes the machine play music",2,4,"prior","A325",-99,"object","make the play music","rare","kazzes",0,"times"
2,93574,"prior_and_posterior","metal rust",0,"makes CATEGORY rust",2,4,"prior","A325",-99,"compound","make the metal rust","rare","morseths",0,"metals"
2,93574,"prior_and_posterior","metal rust",0,"makes CATEGORY rust",2,4,"prior","A325",-99,"compound","make the metal rust","rare","morseths",0,"metals"
2,93574,"prior_and_posterior","metal rust",0,"makes CATEGORY rust",2,4,"prior","A325",-99,"compound","make the metal rust","rare","morseths",0.08,"metals"
2,93574,"prior_and_posterior","metal rust",0,"makes CATEGORY rust",2,4,"prior","A325",-99,"compound","make the metal rust","rare","morseths",0.36,"metals"
2,93574,"prior_and_posterior","metal rust",0,"makes CATEGORY rust",2,4,"prior","A325",-99,"compound","make the metal rust","rare","morseths",0,"metals"
2,93574,"prior_and_posterior","metal rust",0,"makes CATEGORY rust",2,4,"prior","A325",-99,"compound","make the metal rust","rare","morseths",0,"metals"
3,162102,"prior_and_posterior","artifact play music",0,"makes the machine play music",1,4,"prior","A325",-99,"object","make the play music","rare","moxes",0,"times"
3,162102,"prior_and_posterior","artifact play music",0,"makes the machine play music",1,4,"prior","A325",-99,"object","make the play music","rare","moxes",0.07,"times"
3,162102,"prior_and_posterior","artifact play music",0,"makes the machine play music",1,4,"prior","A325",-99,"object","make the play music","rare","moxes",0.02,"times"
3,162102,"prior_and_posterior","artifact play music",0,"makes the machine play music",1,4,"prior","A325",-99,"object","make the play music","rare","moxes",0.02,"times"
3,162102,"prior_and_posterior","artifact play music",0,"makes the machine play music",1,4,"prior","A325",-99,"object","make the play music","rare","moxes",0.02,"times"
3,162102,"prior_and_posterior","artifact play music",0,"makes the machine play music",1,4,"prior","A325",-99,"object","make the play music","rare","moxes",0.08,"times"
4,76214,"prior_and_posterior","metal rust",0,"makes CATEGORY rust",1,4,"prior","Z142",-99,"compound","make the metal rust","rare","plovs",0,"metals"
4,76214,"prior_and_posterior","metal rust",0,"makes CATEGORY rust",1,4,"prior","Z142",-99,"compound","make the metal rust","rare","plovs",0.15,"metals"
4,76214,"prior_and_posterior","metal rust",0,"makes CATEGORY rust",1,4,"prior","Z142",-99,"compound","make the metal rust","rare","plovs",0.08,"metals"
4,76214,"prior_and_posterior","metal rust",0,"makes CATEGORY rust",1,4,"prior","Z142",-99,"compound","make the metal rust","rare","plovs",0,"metals"
4,76214,"prior_and_posterior","metal rust",0,"makes CATEGORY rust",1,4,"prior","Z142",-99,"compound","make the metal rust","rare","plovs",0,"metals"
4,76214,"prior_and_posterior","metal rust",0,"makes CATEGORY rust",1,4,"prior","Z142",-99,"compound","make the metal rust","rare","plovs",0.25,"metals"
5,8003,"prior_and_posterior","metal rust",0,"makes CATEGORY rust",1,4,"prior","X137",-99,"compound","make the metal rust","rare","lorches",0.22,"metals"
5,8003,"prior_and_posterior","metal rust",0,"makes CATEGORY rust",1,4,"prior","X137",-99,"compound","make the metal rust","rare","lorches",0.49,"metals"
5,8003,"prior_and_posterior","metal rust",0,"makes CATEGORY rust",1,4,"prior","X137",-99,"compound","make the metal rust","rare","lorches",0.28,"metals"
5,8003,"prior_and_posterior","metal rust",0,"makes CATEGORY rust",1,4,"prior","X137",-99,"compound","make the metal rust","rare","lorches",0.54,"metals"
5,8003,"prior_and_posterior","metal rust",0,"makes CATEGORY rust",1,4,"prior","X137",-99,"compound","make the metal rust","rare","lorches",0.5,"metals"
5,8003,"prior_and_posterior","metal rust",0,"makes CATEGORY rust",1,4,"prior","X137",-99,"compound","make the metal rust","rare","lorches",0.84,"metals"
6,58580,"prior_and_posterior","artifact play music",0,"makes the machine play music",1,4,"prior","X137",-99,"object","make the play music","rare","elleps",0.27,"times"
6,58580,"prior_and_posterior","artifact play music",0,"makes the machine play music",1,4,"prior","X137",-99,"object","make the play music","rare","elleps",0.32,"times"
6,58580,"prior_and_posterior","artifact play music",0,"makes the machine play music",1,4,"prior","X137",-99,"object","make the play music","rare","elleps",0.25,"times"
6,58580,"prior_and_posterior","artifact play music",0,"makes the machine play music",1,4,"prior","X137",-99,"object","make the play music","rare","elleps",0.28,"times"
6,58580,"prior_and_posterior","artifact play music",0,"makes the machine play music",1,4,"prior","X137",-99,"object","make the play music","rare","elleps",0.6,"times"
6,58580,"prior_and_posterior","artifact play music",0,"makes the machine play music",1,4,"prior","X137",-99,"object","make the play music","rare","elleps",0.42,"times"
7,34758,"prior_and_posterior","artifact play music",0,"makes the machine play music",1,4,"prior","A325",-99,"object","make the play music","rare","mooks",0.2,"times"
7,34758,"prior_and_posterior","artifact play music",0,"makes the machine play music",1,4,"prior","A325",-99,"object","make the play music","rare","mooks",0,"times"
7,34758,"prior_and_posterior","artifact play music",0,"makes the machine play music",1,4,"prior","A325",-99,"object","make the play music","rare","mooks",0.02,"times"
7,34758,"prior_and_posterior","artifact play music",0,"makes the machine play music",1,4,"prior","A325",-99,"object","make the play music","rare","mooks",0.01,"times"
7,34758,"prior_and_posterior","artifact play music",0,"makes the machine play music",1,4,"prior","A325",-99,"object","make the play music","rare","mooks",0.2,"times"
7,34758,"prior_and_posterior","artifact play music",0,"makes the machine play music",1,4,"prior","A325",-99,"object","make the play music","rare","mooks",0.01,"times"
8,231591,"prior_and_posterior","metal rust",0,"makes CATEGORY rust",2,4,"prior","X137",-99,"compound","make the metal rust","rare","dorbs",0,"metals"
8,231591,"prior_and_posterior","metal rust",0,"makes CATEGORY rust",2,4,"prior","X137",-99,"compound","make the metal rust","rare","dorbs",0,"metals"
8,231591,"prior_and_posterior","metal rust",0,"makes CATEGORY rust",2,4,"prior","X137",-99,"compound","make the metal rust","rare","dorbs",0.09,"metals"
8,231591,"prior_and_posterior","metal rust",0,"makes CATEGORY rust",2,4,"prior","X137",-99,"compound","make the metal rust","rare","dorbs",0,"metals"
8,231591,"prior_and_posterior","metal rust",0,"makes CATEGORY rust",2,4,"prior","X137",-99,"compound","make the metal rust","rare","dorbs",0,"metals"
8,231591,"prior_and_posterior","metal rust",0,"makes CATEGORY rust",2,4,"prior","X137",-99,"compound","make the metal rust","rare","dorbs",0.06,"metals"
9,50929,"prior_and_posterior","metal rust",0,"makes CATEGORY rust",1,4,"prior","Z142",-99,"compound","make the metal rust","rare","wugs",0.02,"metals"
9,50929,"prior_and_posterior","metal rust",0,"makes CATEGORY rust",1,4,"prior","Z142",-99,"compound","make the metal rust","rare","wugs",0.02,"metals"
9,50929,"prior_and_posterior","metal rust",0,"makes CATEGORY rust",1,4,"prior","Z142",-99,"compound","make the metal rust","rare","wugs",0.02,"metals"
9,50929,"prior_and_posterior","metal rust",0,"makes CATEGORY rust",1,4,"prior","Z142",-99,"compound","make the metal rust","rare","wugs",0.01,"metals"
9,50929,"prior_and_posterior","metal rust",0,"makes CATEGORY rust",1,4,"prior","Z142",-99,"compound","make the metal rust","rare","wugs",0.06,"metals"
9,50929,"prior_and_posterior","metal rust",0,"makes CATEGORY rust",1,4,"prior","Z142",-99,"compound","make the metal rust","rare","wugs",0.16,"metals"
10,123047,"prior_and_posterior","metal rust",0,"makes CATEGORY rust",2,4,"prior","Z142",-99,"compound","make the metal rust","rare","moxes",0.07,"metals"
10,123047,"prior_and_posterior","metal rust",0,"makes CATEGORY rust",2,4,"prior","Z142",-99,"compound","make the metal rust","rare","moxes",0,"metals"
10,123047,"prior_and_posterior","metal rust",0,"makes CATEGORY rust",2,4,"prior","Z142",-99,"compound","make the metal rust","rare","moxes",0,"metals"
10,123047,"prior_and_posterior","metal rust",0,"makes CATEGORY rust",2,4,"prior","Z142",-99,"compound","make the metal rust","rare","moxes",0,"metals"
10,123047,"prior_and_posterior","metal rust",0,"makes CATEGORY rust",2,4,"prior","Z142",-99,"compound","make the metal rust","rare","moxes",0.07,"metals"
10,123047,"prior_and_posterior","metal rust",0,"makes CATEGORY rust",2,4,"prior","Z142",-99,"compound","make the metal rust","rare","moxes",0,"metals"
11,66196,"prior_and_posterior","metal rust",0,"makes CATEGORY rust",2,4,"prior","Z142",-99,"compound","make the metal rust","rare","ackles",0,"metals"
11,66196,"prior_and_posterior","metal rust",0,"makes CATEGORY rust",2,4,"prior","Z142",-99,"compound","make the metal rust","rare","ackles",0,"metals"
11,66196,"prior_and_posterior","metal rust",0,"makes CATEGORY rust",2,4,"prior","Z142",-99,"compound","make the metal rust","rare","ackles",0.45,"metals"
11,66196,"prior_and_posterior","metal rust",0,"makes CATEGORY rust",2,4,"prior","Z142",-99,"compound","make the metal rust","rare","ackles",0,"metals"
11,66196,"prior_and_posterior","metal rust",0,"makes CATEGORY rust",2,4,"prior","Z142",-99,"compound","make the metal rust","rare","ackles",0,"metals"
11,66196,"prior_and_posterior","metal rust",0,"makes CATEGORY rust",2,4,"prior","Z142",-99,"compound","make the metal rust","rare","ackles",0,"metals"
12,41443,"prior_and_posterior","artifact play music",0,"makes the machine play music",2,4,"prior","Q681",-99,"object","make the play music","rare","dorbs",0,"times"
12,41443,"prior_and_posterior","artifact play music",0,"makes the machine play music",2,4,"prior","Q681",-99,"object","make the play music","rare","dorbs",0,"times"
12,41443,"prior_and_posterior","artifact play music",0,"makes the machine play music",2,4,"prior","Q681",-99,"object","make the play music","rare","dorbs",0,"times"
12,41443,"prior_and_posterior","artifact play music",0,"makes the machine play music",2,4,"prior","Q681",-99,"object","make the play music","rare","dorbs",0,"times"
12,41443,"prior_and_posterior","artifact play music",0,"makes the machine play music",2,4,"prior","Q681",-99,"object","make the play music","rare","dorbs",0,"times"
12,41443,"prior_and_posterior","artifact play music",0,"makes the machine play music",2,4,"prior","Q681",-99,"object","make the play music","rare","dorbs",0.01,"times"
13,35394,"prior_and_posterior","metal rust",0,"makes CATEGORY rust",2,4,"prior","X137",-99,"compound","make the metal rust","rare","ollers",0.44,"metals"
13,35394,"prior_and_posterior","metal rust",0,"makes CATEGORY rust",2,4,"prior","X137",-99,"compound","make the metal rust","rare","ollers",0.49,"metals"
13,35394,"prior_and_posterior","metal rust",0,"makes CATEGORY rust",2,4,"prior","X137",-99,"compound","make the metal rust","rare","ollers",0.51,"metals"
13,35394,"prior_and_posterior","metal rust",0,"makes CATEGORY rust",2,4,"prior","X137",-99,"compound","make the metal rust","rare","ollers",0.42,"metals"
13,35394,"prior_and_posterior","metal rust",0,"makes CATEGORY rust",2,4,"prior","X137",-99,"compound","make the metal rust","rare","ollers",0.49,"metals"
13,35394,"prior_and_posterior","metal rust",0,"makes CATEGORY rust",2,4,"prior","X137",-99,"compound","make the metal rust","rare","ollers",0.51,"metals"
14,7886,"prior_and_posterior","artifact play music",0,"makes the machine play music",2,4,"prior","A325",-99,"object","make the play music","rare","frams",0.44,"times"
14,7886,"prior_and_posterior","artifact play music",0,"makes the machine play music",2,4,"prior","A325",-99,"object","make the play music","rare","frams",0.46,"times"
14,7886,"prior_and_posterior","artifact play music",0,"makes the machine play music",2,4,"prior","A325",-99,"object","make the play music","rare","frams",0.48,"times"
14,7886,"prior_and_posterior","artifact play music",0,"makes the machine play music",2,4,"prior","A325",-99,"object","make the play music","rare","frams",0.46,"times"
14,7886,"prior_and_posterior","artifact play music",0,"makes the machine play music",2,4,"prior","A325",-99,"object","make the play music","rare","frams",0.47,"times"
14,7886,"prior_and_posterior","artifact play music",0,"makes the machine play music",2,4,"prior","A325",-99,"object","make the play music","rare","frams",0.5,"times"
15,5907,"prior_and_posterior","metal rust",0,"makes CATEGORY rust",2,4,"prior","A325",-99,"compound","make the metal rust","rare","dorbs",0.51,"metals"
15,5907,"prior_and_posterior","metal rust",0,"makes CATEGORY rust",2,4,"prior","A325",-99,"compound","make the metal rust","rare","dorbs",0.39,"metals"
15,5907,"prior_and_posterior","metal rust",0,"makes CATEGORY rust",2,4,"prior","A325",-99,"compound","make the metal rust","rare","dorbs",0.44,"metals"
15,5907,"prior_and_posterior","metal rust",0,"makes CATEGORY rust",2,4,"prior","A325",-99,"compound","make the metal rust","rare","dorbs",0.37,"metals"
15,5907,"prior_and_posterior","metal rust",0,"makes CATEGORY rust",2,4,"prior","A325",-99,"compound","make the metal rust","rare","dorbs",0.42,"metals"
15,5907,"prior_and_posterior","metal rust",0,"makes CATEGORY rust",2,4,"prior","A325",-99,"compound","make the metal rust","rare","dorbs",0.5,"metals"
16,128946,"prior_and_posterior","metal rust",0,"makes CATEGORY rust",1,4,"prior","Z142",-99,"compound","make the metal rust","rare","crullets",0,"metals"
16,128946,"prior_and_posterior","metal rust",0,"makes CATEGORY rust",1,4,"prior","Z142",-99,"compound","make the metal rust","rare","crullets",0,"metals"
16,128946,"prior_and_posterior","metal rust",0,"makes CATEGORY rust",1,4,"prior","Z142",-99,"compound","make the metal rust","rare","crullets",0,"metals"
16,128946,"prior_and_posterior","metal rust",0,"makes CATEGORY rust",1,4,"prior","Z142",-99,"compound","make the metal rust","rare","crullets",0,"metals"
16,128946,"prior_and_posterior","metal rust",0,"makes CATEGORY rust",1,4,"prior","Z142",-99,"compound","make the metal rust","rare","crullets",0,"metals"
16,128946,"prior_and_posterior","metal rust",0,"makes CATEGORY rust",1,4,"prior","Z142",-99,"compound","make the metal rust","rare","crullets",0,"metals"
17,53866,"prior_and_posterior","metal rust",0,"makes CATEGORY rust",1,4,"prior","A325",-99,"compound","make the metal rust","rare","pangolins",0.07,"metals"
17,53866,"prior_and_posterior","metal rust",0,"makes CATEGORY rust",1,4,"prior","A325",-99,"compound","make the metal rust","rare","pangolins",0.03,"metals"
17,53866,"prior_and_posterior","metal rust",0,"makes CATEGORY rust",1,4,"prior","A325",-99,"compound","make the metal rust","rare","pangolins",0.05,"metals"
17,53866,"prior_and_posterior","metal rust",0,"makes CATEGORY rust",1,4,"prior","A325",-99,"compound","make the metal rust","rare","pangolins",0,"metals"
17,53866,"prior_and_posterior","metal rust",0,"makes CATEGORY rust",1,4,"prior","A325",-99,"compound","make the metal rust","rare","pangolins",0.07,"metals"
17,53866,"prior_and_posterior","metal rust",0,"makes CATEGORY rust",1,4,"prior","A325",-99,"compound","make the metal rust","rare","pangolins",0.06,"metals"
18,45002,"prior_and_posterior","artifact play music",0,"makes the machine play music",1,4,"prior","X137",-99,"object","make the play music","rare","sapers",0.28,"times"
18,45002,"prior_and_posterior","artifact play music",0,"makes the machine play music",1,4,"prior","X137",-99,"object","make the play music","rare","sapers",1,"times"
18,45002,"prior_and_posterior","artifact play music",0,"makes the machine play music",1,4,"prior","X137",-99,"object","make the play music","rare","sapers",1,"times"
18,45002,"prior_and_posterior","artifact play music",0,"makes the machine play music",1,4,"prior","X137",-99,"object","make the play music","rare","sapers",1,"times"
18,45002,"prior_and_posterior","artifact play music",0,"makes the machine play music",1,4,"prior","X137",-99,"object","make the play music","rare","sapers",1,"times"
18,45002,"prior_and_posterior","artifact play music",0,"makes the machine play music",1,4,"prior","X137",-99,"object","make the play music","rare","sapers",1,"times"
19,62094,"prior_and_posterior","metal rust",0,"makes CATEGORY rust",1,4,"prior","A325",-99,"compound","make the metal rust","rare","taifels",0.08,"metals"
19,62094,"prior_and_posterior","metal rust",0,"makes CATEGORY rust",1,4,"prior","A325",-99,"compound","make the metal rust","rare","taifels",0.01,"metals"
19,62094,"prior_and_posterior","metal rust",0,"makes CATEGORY rust",1,4,"prior","A325",-99,"compound","make the metal rust","rare","taifels",0.11,"metals"
19,62094,"prior_and_posterior","metal rust",0,"makes CATEGORY rust",1,4,"prior","A325",-99,"compound","make the metal rust","rare","taifels",0.01,"metals"
19,62094,"prior_and_posterior","metal rust",0,"makes CATEGORY rust",1,4,"prior","A325",-99,"compound","make the metal rust","rare","taifels",0.11,"metals"
19,62094,"prior_and_posterior","metal rust",0,"makes CATEGORY rust",1,4,"prior","A325",-99,"compound","make the metal rust","rare","taifels",0,"metals"
20,116820,"prior_and_posterior","metal rust",0,"makes CATEGORY rust",1,4,"prior","Z142",-99,"compound","make the metal rust","rare","glippets",0.02,"metals"
20,116820,"prior_and_posterior","metal rust",0,"makes CATEGORY rust",1,4,"prior","Z142",-99,"compound","make the metal rust","rare","glippets",0.09,"metals"
20,116820,"prior_and_posterior","metal rust",0,"makes CATEGORY rust",1,4,"prior","Z142",-99,"compound","make the metal rust","rare","glippets",0,"metals"
20,116820,"prior_and_posterior","metal rust",0,"makes CATEGORY rust",1,4,"prior","Z142",-99,"compound","make the metal rust","rare","glippets",0,"metals"
20,116820,"prior_and_posterior","metal rust",0,"makes CATEGORY rust",1,4,"prior","Z142",-99,"compound","make the metal rust","rare","glippets",0.09,"metals"
20,116820,"prior_and_posterior","metal rust",0,"makes CATEGORY rust",1,4,"prior","Z142",-99,"compound","make the metal rust","rare","glippets",0,"metals"
21,52006,"prior_and_posterior","artifact play music",0,"makes the machine play music",1,4,"prior","X137",-99,"object","make the play music","rare","luzaks",0.02,"times"
21,52006,"prior_and_posterior","artifact play music",0,"makes the machine play music",1,4,"prior","X137",-99,"object","make the play music","rare","luzaks",0.02,"times"
21,52006,"prior_and_posterior","artifact play music",0,"makes the machine play music",1,4,"prior","X137",-99,"object","make the play music","rare","luzaks",0.01,"times"
21,52006,"prior_and_posterior","artifact play music",0,"makes the machine play music",1,4,"prior","X137",-99,"object","make the play music","rare","luzaks",0.02,"times"
21,52006,"prior_and_posterior","artifact play music",0,"makes the machine play music",1,4,"prior","X137",-99,"object","make the play music","rare","luzaks",0.01,"times"
21,52006,"prior_and_posterior","artifact play music",0,"makes the machine play music",1,4,"prior","X137",-99,"object","make the play music","rare","luzaks",0.01,"times"
22,191575,"prior_and_posterior","metal rust",0,"makes CATEGORY rust",2,4,"prior","A325",-99,"compound","make the metal rust","rare","thups",0.02,"metals"
22,191575,"prior_and_posterior","metal rust",0,"makes CATEGORY rust",2,4,"prior","A325",-99,"compound","make the metal rust","rare","thups",0.02,"metals"
22,191575,"prior_and_posterior","metal rust",0,"makes CATEGORY rust",2,4,"prior","A325",-99,"compound","make the metal rust","rare","thups",0.02,"metals"
22,191575,"prior_and_posterior","metal rust",0,"makes CATEGORY rust",2,4,"prior","A325",-99,"compound","make the metal rust","rare","thups",0.02,"metals"
22,191575,"prior_and_posterior","metal rust",0,"makes CATEGORY rust",2,4,"prior","A325",-99,"compound","make the metal rust","rare","thups",0.08,"metals"
22,191575,"prior_and_posterior","metal rust",0,"makes CATEGORY rust",2,4,"prior","A325",-99,"compound","make the metal rust","rare","thups",0.02,"metals"
23,199784,"prior_and_posterior","artifact play music",0,"makes the machine play music",2,4,"prior","Q681",-99,"object","make the play music","rare","javs",0.29,"times"
23,199784,"prior_and_posterior","artifact play music",0,"makes the machine play music",2,4,"prior","Q681",-99,"object","make the play music","rare","javs",0.34,"times"
23,199784,"prior_and_posterior","artifact play music",0,"makes the machine play music",2,4,"prior","Q681",-99,"object","make the play music","rare","javs",0.35,"times"
23,199784,"prior_and_posterior","artifact play music",0,"makes the machine play music",2,4,"prior","Q681",-99,"object","make the play music","rare","javs",0.38,"times"
23,199784,"prior_and_posterior","artifact play music",0,"makes the machine play music",2,4,"prior","Q681",-99,"object","make the play music","rare","javs",0.41,"times"
23,199784,"prior_and_posterior","artifact play music",0,"makes the machine play music",2,4,"prior","Q681",-99,"object","make the play music","rare","javs",0.44,"times"
24,81359,"prior_and_posterior","artifact play music",0,"makes the machine play music",2,4,"prior","A325",-99,"object","make the play music","rare","mooks",0.06,"times"
24,81359,"prior_and_posterior","artifact play music",0,"makes the machine play music",2,4,"prior","A325",-99,"object","make the play music","rare","mooks",0.25,"times"
24,81359,"prior_and_posterior","artifact play music",0,"makes the machine play music",2,4,"prior","A325",-99,"object","make the play music","rare","mooks",0,"times"
24,81359,"prior_and_posterior","artifact play music",0,"makes the machine play music",2,4,"prior","A325",-99,"object","make the play music","rare","mooks",0.19,"times"
24,81359,"prior_and_posterior","artifact play music",0,"makes the machine play music",2,4,"prior","A325",-99,"object","make the play music","rare","mooks",0.05,"times"
24,81359,"prior_and_posterior","artifact play music",0,"makes the machine play music",2,4,"prior","A325",-99,"object","make the play music","rare","mooks",0.38,"times"
25,134265,"prior_and_posterior","artifact play music",0,"makes the machine play music",1,4,"prior","Q681",-99,"object","make the play music","rare","stups",0,"times"
25,134265,"prior_and_posterior","artifact play music",0,"makes the machine play music",1,4,"prior","Q681",-99,"object","make the play music","rare","stups",0.05,"times"
25,134265,"prior_and_posterior","artifact play music",0,"makes the machine play music",1,4,"prior","Q681",-99,"object","make the play music","rare","stups",0,"times"
25,134265,"prior_and_posterior","artifact play music",0,"makes the machine play music",1,4,"prior","Q681",-99,"object","make the play music","rare","stups",0.11,"times"
25,134265,"prior_and_posterior","artifact play music",0,"makes the machine play music",1,4,"prior","Q681",-99,"object","make the play music","rare","stups",0,"times"
25,134265,"prior_and_posterior","artifact play music",0,"makes the machine play music",1,4,"prior","Q681",-99,"object","make the play music","rare","stups",0,"times"
26,19133,"prior_and_posterior","metal rust",0,"makes CATEGORY rust",2,4,"prior","Q681",-99,"compound","make the metal rust","rare","kweps",0.16,"metals"
26,19133,"prior_and_posterior","metal rust",0,"makes CATEGORY rust",2,4,"prior","Q681",-99,"compound","make the metal rust","rare","kweps",0.29,"metals"
26,19133,"prior_and_posterior","metal rust",0,"makes CATEGORY rust",2,4,"prior","Q681",-99,"compound","make the metal rust","rare","kweps",0.43,"metals"
26,19133,"prior_and_posterior","metal rust",0,"makes CATEGORY rust",2,4,"prior","Q681",-99,"compound","make the metal rust","rare","kweps",0.21,"metals"
26,19133,"prior_and_posterior","metal rust",0,"makes CATEGORY rust",2,4,"prior","Q681",-99,"compound","make the metal rust","rare","kweps",0.2,"metals"
26,19133,"prior_and_posterior","metal rust",0,"makes CATEGORY rust",2,4,"prior","Q681",-99,"compound","make the metal rust","rare","kweps",0.39,"metals"
27,46960,"prior_and_posterior","metal rust",0,"makes CATEGORY rust",1,4,"prior","Z142",-99,"compound","make the metal rust","rare","dorbs",0.23,"metals"
27,46960,"prior_and_posterior","metal rust",0,"makes CATEGORY rust",1,4,"prior","Z142",-99,"compound","make the metal rust","rare","dorbs",0.42,"metals"
27,46960,"prior_and_posterior","metal rust",0,"makes CATEGORY rust",1,4,"prior","Z142",-99,"compound","make the metal rust","rare","dorbs",0.2,"metals"
27,46960,"prior_and_posterior","metal rust",0,"makes CATEGORY rust",1,4,"prior","Z142",-99,"compound","make the metal rust","rare","dorbs",0.08,"metals"
27,46960,"prior_and_posterior","metal rust",0,"makes CATEGORY rust",1,4,"prior","Z142",-99,"compound","make the metal rust","rare","dorbs",0.07,"metals"
27,46960,"prior_and_posterior","metal rust",0,"makes CATEGORY rust",1,4,"prior","Z142",-99,"compound","make the metal rust","rare","dorbs",0.11,"metals"
28,13450,"prior_and_posterior","metal rust",0,"makes CATEGORY rust",2,4,"prior","Z142",-99,"compound","make the metal rust","rare","blins",0.47,"metals"
28,13450,"prior_and_posterior","metal rust",0,"makes CATEGORY rust",2,4,"prior","Z142",-99,"compound","make the metal rust","rare","blins",0.52,"metals"
28,13450,"prior_and_posterior","metal rust",0,"makes CATEGORY rust",2,4,"prior","Z142",-99,"compound","make the metal rust","rare","blins",0.5,"metals"
28,13450,"prior_and_posterior","metal rust",0,"makes CATEGORY rust",2,4,"prior","Z142",-99,"compound","make the metal rust","rare","blins",0.48,"metals"
28,13450,"prior_and_posterior","metal rust",0,"makes CATEGORY rust",2,4,"prior","Z142",-99,"compound","make the metal rust","rare","blins",0.51,"metals"
28,13450,"prior_and_posterior","metal rust",0,"makes CATEGORY rust",2,4,"prior","Z142",-99,"compound","make the metal rust","rare","blins",0.56,"metals"
29,102742,"prior_and_posterior","metal rust",0,"makes CATEGORY rust",1,4,"prior","X137",-99,"compound","make the metal rust","rare","luzaks",0.01,"metals"
29,102742,"prior_and_posterior","metal rust",0,"makes CATEGORY rust",1,4,"prior","X137",-99,"compound","make the metal rust","rare","luzaks",0.01,"metals"
29,102742,"prior_and_posterior","metal rust",0,"makes CATEGORY rust",1,4,"prior","X137",-99,"compound","make the metal rust","rare","luzaks",0,"metals"
29,102742,"prior_and_posterior","metal rust",0,"makes CATEGORY rust",1,4,"prior","X137",-99,"compound","make the metal rust","rare","luzaks",0,"metals"
29,102742,"prior_and_posterior","metal rust",0,"makes CATEGORY rust",1,4,"prior","X137",-99,"compound","make the metal rust","rare","luzaks",0.14,"metals"
29,102742,"prior_and_posterior","metal rust",0,"makes CATEGORY rust",1,4,"prior","X137",-99,"compound","make the metal rust","rare","luzaks",0.03,"metals"
30,70573,"prior_and_posterior","artifact play music",0,"makes the machine play music",2,4,"prior","Q681",-99,"object","make the play music","rare","javs",0,"times"
30,70573,"prior_and_posterior","artifact play music",0,"makes the machine play music",2,4,"prior","Q681",-99,"object","make the play music","rare","javs",0,"times"
30,70573,"prior_and_posterior","artifact play music",0,"makes the machine play music",2,4,"prior","Q681",-99,"object","make the play music","rare","javs",0.01,"times"
30,70573,"prior_and_posterior","artifact play music",0,"makes the machine play music",2,4,"prior","Q681",-99,"object","make the play music","rare","javs",0,"times"
30,70573,"prior_and_posterior","artifact play music",0,"makes the machine play music",2,4,"prior","Q681",-99,"object","make the play music","rare","javs",0.01,"times"
30,70573,"prior_and_posterior","artifact play music",0,"makes the machine play music",2,4,"prior","Q681",-99,"object","make the play music","rare","javs",0.01,"times"
31,89322,"prior_and_posterior","artifact play music",0,"makes the machine play music",2,4,"prior","Q681",-99,"object","make the play music","rare","taifels",0,"times"
31,89322,"prior_and_posterior","artifact play music",0,"makes the machine play music",2,4,"prior","Q681",-99,"object","make the play music","rare","taifels",0.09,"times"
31,89322,"prior_and_posterior","artifact play music",0,"makes the machine play music",2,4,"prior","Q681",-99,"object","make the play music","rare","taifels",0.09,"times"
31,89322,"prior_and_posterior","artifact play music",0,"makes the machine play music",2,4,"prior","Q681",-99,"object","make the play music","rare","taifels",0.03,"times"
31,89322,"prior_and_posterior","artifact play music",0,"makes the machine play music",2,4,"prior","Q681",-99,"object","make the play music","rare","taifels",0.09,"times"
31,89322,"prior_and_posterior","artifact play music",0,"makes the machine play music",2,4,"prior","Q681",-99,"object","make the play music","rare","taifels",0.09,"times"
32,8865,"prior_and_posterior","artifact play music",0,"makes the machine play music",1,4,"prior","A325",-99,"object","make the play music","rare","taifels",0.39,"times"
32,8865,"prior_and_posterior","artifact play music",0,"makes the machine play music",1,4,"prior","A325",-99,"object","make the play music","rare","taifels",0.28,"times"
32,8865,"prior_and_posterior","artifact play music",0,"makes the machine play music",1,4,"prior","A325",-99,"object","make the play music","rare","taifels",0.62,"times"
32,8865,"prior_and_posterior","artifact play music",0,"makes the machine play music",1,4,"prior","A325",-99,"object","make the play music","rare","taifels",0.61,"times"
32,8865,"prior_and_posterior","artifact play music",0,"makes the machine play music",1,4,"prior","A325",-99,"object","make the play music","rare","taifels",0.49,"times"
32,8865,"prior_and_posterior","artifact play music",0,"makes the machine play music",1,4,"prior","A325",-99,"object","make the play music","rare","taifels",0.52,"times"
33,200044,"prior_and_posterior","metal rust",0,"makes CATEGORY rust",2,4,"prior","A325",-99,"compound","make the metal rust","rare","feps",0.21,"metals"
33,200044,"prior_and_posterior","metal rust",0,"makes CATEGORY rust",2,4,"prior","A325",-99,"compound","make the metal rust","rare","feps",0,"metals"
33,200044,"prior_and_posterior","metal rust",0,"makes CATEGORY rust",2,4,"prior","A325",-99,"compound","make the metal rust","rare","feps",0.14,"metals"
33,200044,"prior_and_posterior","metal rust",0,"makes CATEGORY rust",2,4,"prior","A325",-99,"compound","make the metal rust","rare","feps",0.02,"metals"
33,200044,"prior_and_posterior","metal rust",0,"makes CATEGORY rust",2,4,"prior","A325",-99,"compound","make the metal rust","rare","feps",0.23,"metals"
33,200044,"prior_and_posterior","metal rust",0,"makes CATEGORY rust",2,4,"prior","A325",-99,"compound","make the metal rust","rare","feps",0,"metals"
34,41590,"prior_and_posterior","artifact play music",0,"makes the machine play music",2,4,"prior","Z142",-99,"object","make the play music","rare","ackles",0,"times"
34,41590,"prior_and_posterior","artifact play music",0,"makes the machine play music",2,4,"prior","Z142",-99,"object","make the play music","rare","ackles",0,"times"
34,41590,"prior_and_posterior","artifact play music",0,"makes the machine play music",2,4,"prior","Z142",-99,"object","make the play music","rare","ackles",0.03,"times"
34,41590,"prior_and_posterior","artifact play music",0,"makes the machine play music",2,4,"prior","Z142",-99,"object","make the play music","rare","ackles",0,"times"
34,41590,"prior_and_posterior","artifact play music",0,"makes the machine play music",2,4,"prior","Z142",-99,"object","make the play music","rare","ackles",0,"times"
34,41590,"prior_and_posterior","artifact play music",0,"makes the machine play music",2,4,"prior","Z142",-99,"object","make the play music","rare","ackles",0,"times"
35,270571,"prior_and_posterior","artifact play music",0,"makes the machine play music",2,4,"prior","Q681",-99,"object","make the play music","rare","morseths",0,"times"
35,270571,"prior_and_posterior","artifact play music",0,"makes the machine play music",2,4,"prior","Q681",-99,"object","make the play music","rare","morseths",0.08,"times"
35,270571,"prior_and_posterior","artifact play music",0,"makes the machine play music",2,4,"prior","Q681",-99,"object","make the play music","rare","morseths",0,"times"
35,270571,"prior_and_posterior","artifact play music",0,"makes the machine play music",2,4,"prior","Q681",-99,"object","make the play music","rare","morseths",0,"times"
35,270571,"prior_and_posterior","artifact play music",0,"makes the machine play music",2,4,"prior","Q681",-99,"object","make the play music","rare","morseths",0.09,"times"
35,270571,"prior_and_posterior","artifact play music",0,"makes the machine play music",2,4,"prior","Q681",-99,"object","make the play music","rare","morseths",0,"times"
36,28921,"prior_and_posterior","metal rust",0,"makes CATEGORY rust",2,4,"prior","A325",-99,"compound","make the metal rust","rare","pangolins",0,"metals"
36,28921,"prior_and_posterior","metal rust",0,"makes CATEGORY rust",2,4,"prior","A325",-99,"compound","make the metal rust","rare","pangolins",0,"metals"
36,28921,"prior_and_posterior","metal rust",0,"makes CATEGORY rust",2,4,"prior","A325",-99,"compound","make the metal rust","rare","pangolins",0,"metals"
36,28921,"prior_and_posterior","metal rust",0,"makes CATEGORY rust",2,4,"prior","A325",-99,"compound","make the metal rust","rare","pangolins",0,"metals"
36,28921,"prior_and_posterior","metal rust",0,"makes CATEGORY rust",2,4,"prior","A325",-99,"compound","make the metal rust","rare","pangolins",0,"metals"
36,28921,"prior_and_posterior","metal rust",0,"makes CATEGORY rust",2,4,"prior","A325",-99,"compound","make the metal rust","rare","pangolins",0,"metals"
37,89598,"prior_and_posterior","metal rust",0,"makes CATEGORY rust",2,4,"prior","X137",-99,"compound","make the metal rust","rare","plovs",0.01,"metals"
37,89598,"prior_and_posterior","metal rust",0,"makes CATEGORY rust",2,4,"prior","X137",-99,"compound","make the metal rust","rare","plovs",0.01,"metals"
37,89598,"prior_and_posterior","metal rust",0,"makes CATEGORY rust",2,4,"prior","X137",-99,"compound","make the metal rust","rare","plovs",0.02,"metals"
37,89598,"prior_and_posterior","metal rust",0,"makes CATEGORY rust",2,4,"prior","X137",-99,"compound","make the metal rust","rare","plovs",0.12,"metals"
37,89598,"prior_and_posterior","metal rust",0,"makes CATEGORY rust",2,4,"prior","X137",-99,"compound","make the metal rust","rare","plovs",0.02,"metals"
37,89598,"prior_and_posterior","metal rust",0,"makes CATEGORY rust",2,4,"prior","X137",-99,"compound","make the metal rust","rare","plovs",0.14,"metals"
38,26289,"prior_and_posterior","metal rust",0,"makes CATEGORY rust",2,4,"prior","Z142",-99,"compound","make the metal rust","rare","plovs",0.15,"metals"
38,26289,"prior_and_posterior","metal rust",0,"makes CATEGORY rust",2,4,"prior","Z142",-99,"compound","make the metal rust","rare","plovs",0.13,"metals"
38,26289,"prior_and_posterior","metal rust",0,"makes CATEGORY rust",2,4,"prior","Z142",-99,"compound","make the metal rust","rare","plovs",0.13,"metals"
38,26289,"prior_and_posterior","metal rust",0,"makes CATEGORY rust",2,4,"prior","Z142",-99,"compound","make the metal rust","rare","plovs",0.14,"metals"
38,26289,"prior_and_posterior","metal rust",0,"makes CATEGORY rust",2,4,"prior","Z142",-99,"compound","make the metal rust","rare","plovs",0.14,"metals"
38,26289,"prior_and_posterior","metal rust",0,"makes CATEGORY rust",2,4,"prior","Z142",-99,"compound","make the metal rust","rare","plovs",0.12,"metals"
39,75330,"prior_and_posterior","artifact play music",0,"makes the machine play music",1,4,"prior","X137",-99,"object","make the play music","rare","daiths",0.17,"times"
39,75330,"prior_and_posterior","artifact play music",0,"makes the machine play music",1,4,"prior","X137",-99,"object","make the play music","rare","daiths",0.02,"times"
39,75330,"prior_and_posterior","artifact play music",0,"makes the machine play music",1,4,"prior","X137",-99,"object","make the play music","rare","daiths",0.02,"times"
39,75330,"prior_and_posterior","artifact play music",0,"makes the machine play music",1,4,"prior","X137",-99,"object","make the play music","rare","daiths",0.01,"times"
39,75330,"prior_and_posterior","artifact play music",0,"makes the machine play music",1,4,"prior","X137",-99,"object","make the play music","rare","daiths",0.08,"times"
39,75330,"prior_and_posterior","artifact play music",0,"makes the machine play music",1,4,"prior","X137",-99,"object","make the play music","rare","daiths",0.01,"times"
