"workerid","rt","trial_type","story","trial_num","target","missing","condition","planet","frequency","treatment","query","distribution","category","response","unit"
0,51362,"prior_and_posterior","germs",0,"kills the bacteria",5,"listener","X137",NA,"compound","kill the bacteria","rare","blins",0.2,"bacteria"
0,18119,"prior_and_posterior","plants",1,"makes the plants grow",5,"listener","Z142",NA,"compound","make the plants grow","gendered","zorbs",0.75,"plants"
0,13583,"prior_and_posterior","babies",2,"makes the babies stop crying",2,"listener","A325",NA,"technique","make the babies stop crying","prevalent","kweps",0.98,"babies"
0,14819,"prior_and_posterior","bread",3,"makes the bread rise",1,"listener","Q681",NA,"yeast","make the bread rise","accidental","moxes",0.3,"breads"
1,45474,"prior_and_posterior","plants",0,"makes the plants grow",2,"prior","A325",NA,"compound","make the plants grow","accidental","zorbs",0.1,"plants"
1,35223,"prior_and_posterior","babies",1,"makes the babies stop crying",1,"prior","Z142",NA,"technique","make the babies stop crying","female","trufts",0.5,"babies"
1,11349,"prior_and_posterior","bread",2,"makes the bread rise",5,"prior","Q681",NA,"yeast","make the bread rise","gendered","reesles",0,"breads"
1,11341,"prior_and_posterior","germs",3,"kills the bacteria",4,"prior","X137",NA,"compound","kill the bacteria","prevalent","moxes",0.7,"bacteria"
2,5290,"prior_and_posterior","babies",0,"makes the babies stop crying",3,"speaker","Q681",10,"technique","make the babies stop crying","biological","ackles",0.84,"babies"
2,1530,"prior_and_posterior","germs",1,"kills the bacteria",6,"speaker","X137",30,"compound","kill the bacteria","gendered","zoovs",0.4,"bacteria"
2,1644,"prior_and_posterior","plants",2,"makes the plants grow",5,"speaker","Z142",50,"compound","make the plants grow","prevalent","wugs",0.57,"plants"
2,2860,"prior_and_posterior","bread",3,"makes the bread rise",8,"speaker","A325",70,"yeast","make the bread rise","female","lorches",0.39,"breads"
3,52389,"prior_and_posterior","germs",0,"kills the bacteria",3,"listener","X137",NA,"compound","kill the bacteria","prevalent","glippets",0.61,"bacteria"
3,7139,"prior_and_posterior","plants",1,"makes the plants grow",9,"listener","A325",NA,"compound","make the plants grow","gendered","kazzes",0.23,"plants"
3,7116,"prior_and_posterior","babies",2,"makes the babies stop crying",6,"listener","Z142",NA,"technique","make the babies stop crying","biological","sapers",0.69,"babies"
3,4973,"prior_and_posterior","bread",3,"makes the bread rise",9,"listener","Q681",NA,"yeast","make the bread rise","rare","blins",0.44,"breads"
4,42079,"prior_and_posterior","plants",0,"makes the plants grow",5,"speaker","X137",30,"compound","make the plants grow","female","reesles",0.16,"plants"
4,42087,"prior_and_posterior","bread",1,"makes the bread rise",9,"speaker","Z142",10,"yeast","make the bread rise","accidental","taifels",0.39,"breads"
4,14822,"prior_and_posterior","germs",2,"kills the bacteria",7,"speaker","A325",70,"compound","kill the bacteria","rare","kweps",0.87,"bacteria"
4,18239,"prior_and_posterior","babies",3,"makes the babies stop crying",4,"speaker","Q681",50,"technique","make the babies stop crying","biological","elleps",0.65,"babies"
5,36815,"prior_and_posterior","bread",0,"makes the bread rise",5,"speaker","Q681",10,"yeast","make the bread rise","accidental","zorbs",0.99,"breads"
5,13888,"prior_and_posterior","germs",1,"kills the bacteria",7,"speaker","X137",30,"compound","kill the bacteria","prevalent","wugs",0.07,"bacteria"
5,11421,"prior_and_posterior","babies",2,"makes the babies stop crying",5,"speaker","A325",50,"technique","make the babies stop crying","gendered","grinks",0.94,"babies"
5,7116,"prior_and_posterior","plants",3,"makes the plants grow",9,"speaker","Z142",70,"compound","make the plants grow","biological","taifels",0.97,"plants"
6,29084,"prior_and_posterior","bread",0,"makes the bread rise",5,"speaker","Z142",30,"yeast","make the bread rise","biological","frams",0.33,"breads"
6,18182,"prior_and_posterior","plants",1,"makes the plants grow",4,"speaker","A325",10,"compound","make the plants grow","rare","glippets",0.07,"plants"
6,12991,"prior_and_posterior","babies",2,"makes the babies stop crying",7,"speaker","X137",70,"technique","make the babies stop crying","gendered","kweps",0.8,"babies"
6,6155,"prior_and_posterior","germs",3,"kills the bacteria",7,"speaker","Q681",50,"compound","kill the bacteria","prevalent","daiths",0.48,"bacteria"
7,37039,"prior_and_posterior","bread",0,"makes the bread rise",2,"speaker","Q681",70,"yeast","make the bread rise","female","zorbs",1,"breads"
7,10711,"prior_and_posterior","plants",1,"makes the plants grow",3,"speaker","A325",50,"compound","make the plants grow","gendered","reesles",0.69,"plants"
7,12877,"prior_and_posterior","babies",2,"makes the babies stop crying",1,"speaker","X137",10,"technique","make the babies stop crying","biological","pangolins",0.08,"babies"
7,13574,"prior_and_posterior","germs",3,"kills the bacteria",8,"speaker","Z142",30,"compound","kill the bacteria","accidental","daiths",0.11,"bacteria"
8,35650,"prior_and_posterior","bread",0,"makes the bread rise",8,"speaker","A325",30,"yeast","make the bread rise","biological","reesles",0.39,"breads"
8,5817,"prior_and_posterior","babies",1,"makes the babies stop crying",8,"speaker","X137",70,"technique","make the babies stop crying","accidental","feps",0.76,"babies"
8,3095,"prior_and_posterior","plants",2,"makes the plants grow",3,"speaker","Q681",10,"compound","make the plants grow","gendered","morseths",0.08,"plants"
8,3521,"prior_and_posterior","germs",3,"kills the bacteria",9,"speaker","Z142",50,"compound","kill the bacteria","female","ackles",0.5,"bacteria"
9,93469,"prior_and_posterior","babies",0,"makes the babies stop crying",3,"prior","A325",NA,"technique","make the babies stop crying","female","luzaks",0.5,"babies"
9,56554,"prior_and_posterior","bread",1,"makes the bread rise",8,"prior","X137",NA,"yeast","make the bread rise","gendered","grinks",0,"breads"
9,10047,"prior_and_posterior","germs",2,"kills the bacteria",8,"prior","Z142",NA,"compound","kill the bacteria","prevalent","moxes",0.67,"bacteria"
9,6208,"prior_and_posterior","plants",3,"makes the plants grow",5,"prior","Q681",NA,"compound","make the plants grow","accidental","thups",0.11,"plants"
10,28509,"prior_and_posterior","germs",0,"kills the bacteria",7,"speaker","Q681",30,"compound","kill the bacteria","biological","ackles",0.2,"bacteria"
10,28572,"prior_and_posterior","bread",1,"makes the bread rise",8,"speaker","X137",50,"yeast","make the bread rise","prevalent","mooks",0.5,"breads"
10,11048,"prior_and_posterior","babies",2,"makes the babies stop crying",9,"speaker","A325",70,"technique","make the babies stop crying","gendered","glippets",0.76,"babies"
10,18070,"prior_and_posterior","plants",3,"makes the plants grow",8,"speaker","Z142",10,"compound","make the plants grow","accidental","grinks",0.07,"plants"
11,14807,"prior_and_posterior","germs",0,"kills the bacteria",2,"prior","A325",NA,"compound","kill the bacteria","female","thups",0.5,"bacteria"
11,19664,"prior_and_posterior","babies",1,"makes the babies stop crying",4,"prior","X137",NA,"technique","make the babies stop crying","gendered","reesles",0.39,"babies"
11,11023,"prior_and_posterior","bread",2,"makes the bread rise",6,"prior","Z142",NA,"yeast","make the bread rise","prevalent","stups",0.7,"breads"
11,33342,"prior_and_posterior","plants",3,"makes the plants grow",1,"prior","Q681",NA,"compound","make the plants grow","accidental","crullets",0.05,"plants"
12,304107,"prior_and_posterior","plants",0,"makes the plants grow",5,"speaker","Z142",50,"compound","make the plants grow","accidental","kazzes",0.44,"plants"
12,12038,"prior_and_posterior","bread",1,"makes the bread rise",9,"speaker","A325",30,"yeast","make the bread rise","gendered","crullets",0.37,"breads"
12,9311,"prior_and_posterior","babies",2,"makes the babies stop crying",9,"speaker","X137",10,"technique","make the babies stop crying","rare","pangolins",0.16,"babies"
12,11936,"prior_and_posterior","germs",3,"kills the bacteria",5,"speaker","Q681",70,"compound","kill the bacteria","female","grinks",0.83,"bacteria"
13,15905,"prior_and_posterior","germs",0,"kills the bacteria",3,"speaker","Q681",10,"compound","kill the bacteria","gendered","feps",0.26,"bacteria"
13,17716,"prior_and_posterior","babies",1,"makes the babies stop crying",8,"speaker","X137",70,"technique","make the babies stop crying","rare","daiths",0.7,"babies"
13,4709,"prior_and_posterior","plants",2,"makes the plants grow",7,"speaker","Z142",50,"compound","make the plants grow","accidental","glippets",0.68,"plants"
13,7066,"prior_and_posterior","bread",3,"makes the bread rise",2,"speaker","A325",30,"yeast","make the bread rise","prevalent","sapers",0.22,"breads"
14,115080,"prior_and_posterior","bread",0,"makes the bread rise",8,"speaker","Q681",70,"yeast","make the bread rise","prevalent","lorches",0.67,"breads"
14,6597,"prior_and_posterior","babies",1,"makes the babies stop crying",2,"speaker","X137",10,"technique","make the babies stop crying","accidental","javs",0.14,"babies"
14,9257,"prior_and_posterior","plants",2,"makes the plants grow",4,"speaker","Z142",50,"compound","make the plants grow","biological","moxes",0.2,"plants"
14,3982,"prior_and_posterior","germs",3,"kills the bacteria",5,"speaker","A325",30,"compound","kill the bacteria","female","dorbs",0.45,"bacteria"
15,46287,"prior_and_posterior","plants",0,"makes the plants grow",4,"speaker","A325",30,"compound","make the plants grow","gendered","kweps",0.61,"plants"
15,22778,"prior_and_posterior","babies",1,"makes the babies stop crying",6,"speaker","Q681",70,"technique","make the babies stop crying","biological","glippets",0.79,"babies"
15,18814,"prior_and_posterior","bread",2,"makes the bread rise",2,"speaker","X137",50,"yeast","make the bread rise","rare","trufts",0.71,"breads"
15,14655,"prior_and_posterior","germs",3,"kills the bacteria",8,"speaker","Z142",10,"compound","kill the bacteria","prevalent","pangolins",0.4,"bacteria"
16,25220,"prior_and_posterior","germs",0,"kills the bacteria",9,"speaker","A325",50,"compound","kill the bacteria","prevalent","daiths",0,"bacteria"
16,10345,"prior_and_posterior","bread",1,"makes the bread rise",5,"speaker","X137",30,"yeast","make the bread rise","female","frams",0.97,"breads"
16,5967,"prior_and_posterior","plants",2,"makes the plants grow",2,"speaker","Z142",70,"compound","make the plants grow","gendered","zorbs",0.07,"plants"
16,5457,"prior_and_posterior","babies",3,"makes the babies stop crying",9,"speaker","Q681",10,"technique","make the babies stop crying","accidental","ackles",0.81,"babies"
17,50420,"prior_and_posterior","plants",0,"makes the plants grow",5,"speaker","Q681",10,"compound","make the plants grow","female","kweps",0.97,"plants"
17,38479,"prior_and_posterior","germs",1,"kills the bacteria",2,"speaker","A325",50,"compound","kill the bacteria","gendered","sapers",0.18,"bacteria"
17,44822,"prior_and_posterior","babies",2,"makes the babies stop crying",9,"speaker","Z142",30,"technique","make the babies stop crying","rare","moxes",0.24,"babies"
17,49783,"prior_and_posterior","bread",3,"makes the bread rise",1,"speaker","X137",70,"yeast","make the bread rise","biological","elleps",0.7,"breads"
18,7861,"prior_and_posterior","bread",0,"makes the bread rise",3,"speaker","A325",50,"yeast","make the bread rise","biological","javs",0.51,"breads"
18,6379,"prior_and_posterior","plants",1,"makes the plants grow",1,"speaker","Q681",30,"compound","make the plants grow","female","mooks",0.55,"plants"
18,6842,"prior_and_posterior","babies",2,"makes the babies stop crying",4,"speaker","Z142",70,"technique","make the babies stop crying","accidental","daiths",0.22,"babies"
18,4344,"prior_and_posterior","germs",3,"kills the bacteria",2,"speaker","X137",10,"compound","kill the bacteria","gendered","luzaks",0.25,"bacteria"
19,41965,"prior_and_posterior","plants",0,"makes the plants grow",8,"speaker","X137",50,"compound","make the plants grow","biological","stups",0.24,"plants"
19,20054,"prior_and_posterior","bread",1,"makes the bread rise",1,"speaker","Z142",70,"yeast","make the bread rise","female","pangolins",0.96,"breads"
19,18167,"prior_and_posterior","germs",2,"kills the bacteria",6,"speaker","A325",10,"compound","kill the bacteria","prevalent","glippets",0.07,"bacteria"
19,28670,"prior_and_posterior","babies",3,"makes the babies stop crying",6,"speaker","Q681",30,"technique","make the babies stop crying","rare","ackles",0.59,"babies"
20,83428,"prior_and_posterior","babies",0,"makes the babies stop crying",7,"speaker","Z142",30,"technique","make the babies stop crying","prevalent","trufts",0,"babies"
20,71334,"prior_and_posterior","germs",1,"kills the bacteria",7,"speaker","Q681",10,"compound","kill the bacteria","gendered","javs",0.02,"bacteria"
20,57130,"prior_and_posterior","bread",2,"makes the bread rise",3,"speaker","X137",50,"yeast","make the bread rise","rare","krivels",1,"breads"
20,38265,"prior_and_posterior","plants",3,"makes the plants grow",3,"speaker","A325",70,"compound","make the plants grow","biological","crullets",1,"plants"
21,8175,"prior_and_posterior","germs",0,"kills the bacteria",4,"speaker","Z142",30,"compound","kill the bacteria","prevalent","javs",0.7,"bacteria"
21,5641,"prior_and_posterior","plants",1,"makes the plants grow",1,"speaker","A325",70,"compound","make the plants grow","biological","zorbs",0.23,"plants"
21,2232,"prior_and_posterior","babies",2,"makes the babies stop crying",5,"speaker","Q681",50,"technique","make the babies stop crying","gendered","wugs",0.22,"babies"
21,5653,"prior_and_posterior","bread",3,"makes the bread rise",9,"speaker","X137",10,"yeast","make the bread rise","female","grinks",0.26,"breads"
22,65424,"prior_and_posterior","plants",0,"makes the plants grow",9,"speaker","Z142",50,"compound","make the plants grow","prevalent","daiths",0.24,"plants"
22,30883,"prior_and_posterior","babies",1,"makes the babies stop crying",9,"speaker","Q681",70,"technique","make the babies stop crying","female","lorches",0.89,"babies"
22,20155,"prior_and_posterior","bread",2,"makes the bread rise",5,"speaker","X137",30,"yeast","make the bread rise","biological","grinks",0.12,"breads"
22,22013,"prior_and_posterior","germs",3,"kills the bacteria",3,"speaker","A325",10,"compound","kill the bacteria","gendered","ollers",0.29,"bacteria"
23,36784,"prior_and_posterior","germs",0,"kills the bacteria",6,"listener","X137",NA,"compound","kill the bacteria","gendered","frams",0.5,"bacteria"
23,11861,"prior_and_posterior","babies",1,"makes the babies stop crying",4,"listener","Z142",NA,"technique","make the babies stop crying","biological","thups",1,"babies"
23,14716,"prior_and_posterior","bread",2,"makes the bread rise",2,"listener","A325",NA,"yeast","make the bread rise","female","dorbs",0.5,"breads"
23,12845,"prior_and_posterior","plants",3,"makes the plants grow",3,"listener","Q681",NA,"compound","make the plants grow","rare","elleps",0.15,"plants"
24,37677,"prior_and_posterior","plants",0,"makes the plants grow",2,"speaker","Z142",50,"compound","make the plants grow","biological","cheebas",0.63,"plants"
24,21479,"prior_and_posterior","germs",1,"kills the bacteria",4,"speaker","Q681",10,"compound","kill the bacteria","gendered","sapers",0.08,"bacteria"
24,32449,"prior_and_posterior","bread",2,"makes the bread rise",4,"speaker","A325",30,"yeast","make the bread rise","prevalent","morseths",0.19,"breads"
24,23454,"prior_and_posterior","babies",3,"makes the babies stop crying",9,"speaker","X137",70,"technique","make the babies stop crying","female","zorbs",0.78,"babies"
25,24700,"prior_and_posterior","germs",0,"kills the bacteria",9,"speaker","Q681",10,"compound","kill the bacteria","biological","luzaks",0,"bacteria"
25,22745,"prior_and_posterior","bread",1,"makes the bread rise",4,"speaker","A325",30,"yeast","make the bread rise","gendered","moxes",0.63,"breads"
25,18321,"prior_and_posterior","babies",2,"makes the babies stop crying",8,"speaker","Z142",50,"technique","make the babies stop crying","accidental","krivels",0.72,"babies"
25,8494,"prior_and_posterior","plants",3,"makes the plants grow",8,"speaker","X137",70,"compound","make the plants grow","female","daiths",0.81,"plants"
26,50439,"prior_and_posterior","babies",0,"makes the babies stop crying",2,"speaker","A325",30,"technique","make the babies stop crying","female","cheebas",0.03,"babies"
26,23854,"prior_and_posterior","bread",1,"makes the bread rise",5,"speaker","Z142",50,"yeast","make the bread rise","rare","lorches",0.71,"breads"
26,13658,"prior_and_posterior","plants",2,"makes the plants grow",8,"speaker","X137",10,"compound","make the plants grow","biological","kweps",0.02,"plants"
26,9062,"prior_and_posterior","germs",3,"kills the bacteria",3,"speaker","Q681",70,"compound","kill the bacteria","prevalent","sapers",0.84,"bacteria"
27,7324,"prior_and_posterior","germs",0,"kills the bacteria",5,"listener","Z142",NA,"compound","kill the bacteria","prevalent","kweps",0.65,"bacteria"
27,3861,"prior_and_posterior","bread",1,"makes the bread rise",6,"listener","Q681",NA,"yeast","make the bread rise","rare","luzaks",0.51,"breads"
27,3922,"prior_and_posterior","babies",2,"makes the babies stop crying",4,"listener","X137",NA,"technique","make the babies stop crying","accidental","cheebas",0.85,"babies"
27,4322,"prior_and_posterior","plants",3,"makes the plants grow",5,"listener","A325",NA,"compound","make the plants grow","female","dorbs",0.68,"plants"
28,39181,"prior_and_posterior","germs",0,"kills the bacteria",1,"prior","X137",NA,"compound","kill the bacteria","prevalent","plovs",0.5,"bacteria"
28,19234,"prior_and_posterior","bread",1,"makes the bread rise",8,"prior","A325",NA,"yeast","make the bread rise","rare","glippets",0.1,"breads"
28,12180,"prior_and_posterior","plants",2,"makes the plants grow",5,"prior","Z142",NA,"compound","make the plants grow","biological","javs",1,"plants"
28,14098,"prior_and_posterior","babies",3,"makes the babies stop crying",3,"prior","Q681",NA,"technique","make the babies stop crying","gendered","reesles",0,"babies"
29,35641,"prior_and_posterior","plants",0,"makes the plants grow",4,"speaker","Z142",10,"compound","make the plants grow","prevalent","javs",0.78,"plants"
29,27965,"prior_and_posterior","babies",1,"makes the babies stop crying",6,"speaker","Q681",30,"technique","make the babies stop crying","female","pangolins",0.34,"babies"
29,8557,"prior_and_posterior","germs",2,"kills the bacteria",9,"speaker","A325",70,"compound","kill the bacteria","biological","daiths",0.9,"bacteria"
29,8544,"prior_and_posterior","bread",3,"makes the bread rise",5,"speaker","X137",50,"yeast","make the bread rise","rare","krivels",0.5,"breads"
30,37071,"prior_and_posterior","babies",0,"makes the babies stop crying",6,"prior","Z142",NA,"technique","make the babies stop crying","female","stups",0.5,"babies"
30,28315,"prior_and_posterior","plants",1,"makes the plants grow",2,"prior","A325",NA,"compound","make the plants grow","rare","lorches",0.1,"plants"
30,38189,"prior_and_posterior","germs",2,"kills the bacteria",9,"prior","Q681",NA,"compound","kill the bacteria","biological","moxes",1,"bacteria"
30,68291,"prior_and_posterior","bread",3,"makes the bread rise",7,"prior","X137",NA,"yeast","make the bread rise","prevalent","ollers",0.7,"breads"
31,24995,"prior_and_posterior","babies",0,"makes the babies stop crying",6,"speaker","Z142",30,"technique","make the babies stop crying","rare","krivels",0.14,"babies"
31,11107,"prior_and_posterior","bread",1,"makes the bread rise",9,"speaker","Q681",50,"yeast","make the bread rise","prevalent","kazzes",0.46,"breads"
31,12225,"prior_and_posterior","germs",2,"kills the bacteria",3,"speaker","A325",70,"compound","kill the bacteria","biological","dorbs",0.67,"bacteria"
31,5752,"prior_and_posterior","plants",3,"makes the plants grow",3,"speaker","X137",10,"compound","make the plants grow","gendered","ackles",0.06,"plants"
32,27034,"prior_and_posterior","germs",0,"kills the bacteria",4,"speaker","X137",70,"compound","kill the bacteria","female","lorches",0.51,"bacteria"
32,10992,"prior_and_posterior","babies",1,"makes the babies stop crying",2,"speaker","Q681",50,"technique","make the babies stop crying","gendered","dorbs",0.18,"babies"
32,8990,"prior_and_posterior","bread",2,"makes the bread rise",8,"speaker","Z142",30,"yeast","make the bread rise","prevalent","pangolins",0.66,"breads"
32,5949,"prior_and_posterior","plants",3,"makes the plants grow",1,"speaker","A325",10,"compound","make the plants grow","accidental","daiths",0.13,"plants"
33,28732,"prior_and_posterior","plants",0,"makes the plants grow",8,"prior","A325",NA,"compound","make the plants grow","accidental","ackles",0.15,"plants"
33,11816,"prior_and_posterior","babies",1,"makes the babies stop crying",1,"prior","X137",NA,"technique","make the babies stop crying","rare","sapers",0,"babies"
33,12947,"prior_and_posterior","germs",2,"kills the bacteria",9,"prior","Z142",NA,"compound","kill the bacteria","female","feps",0.5,"bacteria"
33,15467,"prior_and_posterior","bread",3,"makes the bread rise",1,"prior","Q681",NA,"yeast","make the bread rise","prevalent","trufts",0.65,"breads"
34,126142,"prior_and_posterior","bread",0,"makes the bread rise",3,"speaker","A325",70,"yeast","make the bread rise","rare","wugs",0.52,"breads"
34,76581,"prior_and_posterior","germs",1,"kills the bacteria",2,"speaker","X137",10,"compound","kill the bacteria","biological","mooks",0.27,"bacteria"
34,39222,"prior_and_posterior","plants",2,"makes the plants grow",8,"speaker","Q681",50,"compound","make the plants grow","gendered","reesles",0.59,"plants"
34,58230,"prior_and_posterior","babies",3,"makes the babies stop crying",5,"speaker","Z142",30,"technique","make the babies stop crying","prevalent","ollers",0.23,"babies"
35,24805,"prior_and_posterior","bread",0,"makes the bread rise",7,"speaker","Z142",10,"yeast","make the bread rise","rare","plovs",0.61,"breads"
35,8600,"prior_and_posterior","plants",1,"makes the plants grow",9,"speaker","X137",70,"compound","make the plants grow","accidental","javs",0.88,"plants"
35,6103,"prior_and_posterior","babies",2,"makes the babies stop crying",6,"speaker","Q681",30,"technique","make the babies stop crying","prevalent","mooks",0.44,"babies"
35,13745,"prior_and_posterior","germs",3,"kills the bacteria",7,"speaker","A325",50,"compound","kill the bacteria","female","trufts",0.84,"bacteria"
36,40480,"prior_and_posterior","bread",0,"makes the bread rise",1,"speaker","X137",50,"yeast","make the bread rise","rare","morseths",0.5,"breads"
36,23512,"prior_and_posterior","plants",1,"makes the plants grow",2,"speaker","Z142",70,"compound","make the plants grow","female","ollers",0.72,"plants"
36,23375,"prior_and_posterior","germs",2,"kills the bacteria",6,"speaker","A325",10,"compound","kill the bacteria","biological","crullets",0.56,"bacteria"
36,17164,"prior_and_posterior","babies",3,"makes the babies stop crying",5,"speaker","Q681",30,"technique","make the babies stop crying","gendered","reesles",0.62,"babies"
37,31250,"prior_and_posterior","bread",0,"makes the bread rise",6,"prior","Z142",NA,"yeast","make the bread rise","accidental","luzaks",0.1,"breads"
37,14666,"prior_and_posterior","plants",1,"makes the plants grow",4,"prior","X137",NA,"compound","make the plants grow","rare","frams",0,"plants"
37,16728,"prior_and_posterior","babies",2,"makes the babies stop crying",4,"prior","A325",NA,"technique","make the babies stop crying","gendered","plovs",0,"babies"
37,11536,"prior_and_posterior","germs",3,"kills the bacteria",5,"prior","Q681",NA,"compound","kill the bacteria","female","grinks",0.5,"bacteria"
38,47108,"prior_and_posterior","germs",0,"kills the bacteria",6,"speaker","Z142",70,"compound","kill the bacteria","rare","ollers",0.76,"bacteria"
38,29005,"prior_and_posterior","babies",1,"makes the babies stop crying",2,"speaker","Q681",10,"technique","make the babies stop crying","accidental","glippets",0.08,"babies"
38,21610,"prior_and_posterior","plants",2,"makes the plants grow",1,"speaker","A325",50,"compound","make the plants grow","gendered","plovs",0.45,"plants"
38,17043,"prior_and_posterior","bread",3,"makes the bread rise",6,"speaker","X137",30,"yeast","make the bread rise","female","kweps",0.17,"breads"
39,88474,"prior_and_posterior","babies",0,"makes the babies stop crying",7,"speaker","X137",10,"technique","make the babies stop crying","biological","reesles",0.17,"babies"
39,10463,"prior_and_posterior","bread",1,"makes the bread rise",6,"speaker","Q681",50,"yeast","make the bread rise","accidental","feps",0.34,"breads"
39,3157,"prior_and_posterior","plants",2,"makes the plants grow",6,"speaker","A325",70,"compound","make the plants grow","gendered","kweps",0.67,"plants"
39,4871,"prior_and_posterior","germs",3,"kills the bacteria",5,"speaker","Z142",30,"compound","kill the bacteria","female","zorbs",0.21,"bacteria"
40,17995,"prior_and_posterior","babies",0,"makes the babies stop crying",9,"prior","A325",NA,"technique","make the babies stop crying","prevalent","kweps",0.8,"babies"
40,14637,"prior_and_posterior","germs",1,"kills the bacteria",3,"prior","X137",NA,"compound","kill the bacteria","biological","grinks",1,"bacteria"
40,20380,"prior_and_posterior","bread",2,"makes the bread rise",8,"prior","Z142",NA,"yeast","make the bread rise","accidental","moxes",0.1,"breads"
40,11367,"prior_and_posterior","plants",3,"makes the plants grow",8,"prior","Q681",NA,"compound","make the plants grow","female","plovs",0.5,"plants"
41,43725,"prior_and_posterior","germs",0,"kills the bacteria",7,"speaker","Q681",30,"compound","kill the bacteria","gendered","daiths",0.5,"bacteria"
41,45677,"prior_and_posterior","babies",1,"makes the babies stop crying",1,"speaker","A325",10,"technique","make the babies stop crying","accidental","grinks",0.37,"babies"
41,18468,"prior_and_posterior","bread",2,"makes the bread rise",5,"speaker","Z142",50,"yeast","make the bread rise","prevalent","krivels",0.36,"breads"
41,20839,"prior_and_posterior","plants",3,"makes the plants grow",5,"speaker","X137",70,"compound","make the plants grow","female","kweps",0.98,"plants"
42,305287,"prior_and_posterior","germs",0,"kills the bacteria",6,"prior","Z142",NA,"compound","kill the bacteria","gendered","javs",0.65,"bacteria"
42,14478,"prior_and_posterior","bread",1,"makes the bread rise",8,"prior","A325",NA,"yeast","make the bread rise","rare","glippets",0.24,"breads"
42,4744,"prior_and_posterior","plants",2,"makes the plants grow",1,"prior","Q681",NA,"compound","make the plants grow","prevalent","stups",0.33,"plants"
42,11149,"prior_and_posterior","babies",3,"makes the babies stop crying",4,"prior","X137",NA,"technique","make the babies stop crying","biological","elleps",0.51,"babies"
43,85597,"prior_and_posterior","babies",0,"makes the babies stop crying",4,"speaker","A325",10,"technique","make the babies stop crying","accidental","blins",0.97,"babies"
43,104790,"prior_and_posterior","bread",1,"makes the bread rise",5,"speaker","X137",30,"yeast","make the bread rise","gendered","javs",0.57,"breads"
43,40416,"prior_and_posterior","germs",2,"kills the bacteria",2,"speaker","Z142",70,"compound","kill the bacteria","biological","trufts",0.26,"bacteria"
43,34945,"prior_and_posterior","plants",3,"makes the plants grow",6,"speaker","Q681",50,"compound","make the plants grow","female","stups",0.98,"plants"
44,80279,"prior_and_posterior","plants",0,"makes the plants grow",2,"prior","Q681",NA,"compound","make the plants grow","accidental","trufts",0.05,"plants"
44,20946,"prior_and_posterior","germs",1,"kills the bacteria",6,"prior","X137",NA,"compound","kill the bacteria","female","zoovs",0.5,"bacteria"
44,27156,"prior_and_posterior","bread",2,"makes the bread rise",4,"prior","A325",NA,"yeast","make the bread rise","rare","frams",0,"breads"
44,56835,"prior_and_posterior","babies",3,"makes the babies stop crying",3,"prior","Z142",NA,"technique","make the babies stop crying","prevalent","zorbs",0.6,"babies"
45,23292,"prior_and_posterior","babies",0,"makes the babies stop crying",8,"listener","X137",NA,"technique","make the babies stop crying","female","plovs",0.61,"babies"
45,4502,"prior_and_posterior","bread",1,"makes the bread rise",9,"listener","A325",NA,"yeast","make the bread rise","gendered","crullets",0.74,"breads"
45,7031,"prior_and_posterior","plants",2,"makes the plants grow",4,"listener","Q681",NA,"compound","make the plants grow","biological","glippets",0.9,"plants"
45,3039,"prior_and_posterior","germs",3,"kills the bacteria",9,"listener","Z142",NA,"compound","kill the bacteria","prevalent","ollers",0.9,"bacteria"
46,27625,"prior_and_posterior","germs",0,"kills the bacteria",1,"speaker","Z142",10,"compound","kill the bacteria","rare","grinks",0.23,"bacteria"
46,16148,"prior_and_posterior","babies",1,"makes the babies stop crying",3,"speaker","Q681",30,"technique","make the babies stop crying","accidental","feps",0.56,"babies"
46,10537,"prior_and_posterior","bread",2,"makes the bread rise",4,"speaker","X137",70,"yeast","make the bread rise","prevalent","thups",0.55,"breads"
46,10557,"prior_and_posterior","plants",3,"makes the plants grow",4,"speaker","A325",50,"compound","make the plants grow","biological","kweps",0.33,"plants"
47,57197,"prior_and_posterior","babies",0,"makes the babies stop crying",4,"speaker","A325",30,"technique","make the babies stop crying","rare","grinks",0.72,"babies"
47,36156,"prior_and_posterior","germs",1,"kills the bacteria",9,"speaker","Q681",70,"compound","kill the bacteria","female","daiths",0.51,"bacteria"
47,27935,"prior_and_posterior","bread",2,"makes the bread rise",6,"speaker","Z142",10,"yeast","make the bread rise","accidental","javs",0.34,"breads"
47,34232,"prior_and_posterior","plants",3,"makes the plants grow",4,"speaker","X137",50,"compound","make the plants grow","biological","moxes",0.69,"plants"
48,51075,"prior_and_posterior","babies",0,"makes the babies stop crying",1,"listener","X137",NA,"technique","make the babies stop crying","prevalent","mooks",0.7,"babies"
48,10070,"prior_and_posterior","plants",1,"makes the plants grow",1,"listener","A325",NA,"compound","make the plants grow","female","daiths",0.5,"plants"
48,8742,"prior_and_posterior","germs",2,"kills the bacteria",2,"listener","Q681",NA,"compound","kill the bacteria","gendered","luzaks",0,"bacteria"
48,9549,"prior_and_posterior","bread",3,"makes the bread rise",6,"listener","Z142",NA,"yeast","make the bread rise","rare","dorbs",0,"breads"
49,94821,"prior_and_posterior","bread",0,"makes the bread rise",7,"speaker","Z142",10,"yeast","make the bread rise","rare","mooks",1,"breads"
49,20957,"prior_and_posterior","plants",1,"makes the plants grow",7,"speaker","Q681",70,"compound","make the plants grow","female","luzaks",1,"plants"
49,19071,"prior_and_posterior","germs",2,"kills the bacteria",6,"speaker","X137",50,"compound","kill the bacteria","accidental","kweps",1,"bacteria"
49,46073,"prior_and_posterior","babies",3,"makes the babies stop crying",4,"speaker","A325",30,"technique","make the babies stop crying","prevalent","stups",1,"babies"
50,47001,"prior_and_posterior","bread",0,"makes the bread rise",3,"speaker","X137",70,"yeast","make the bread rise","accidental","reesles",0.2,"breads"
50,10281,"prior_and_posterior","babies",1,"makes the babies stop crying",4,"speaker","Q681",50,"technique","make the babies stop crying","rare","pangolins",0.68,"babies"
50,8945,"prior_and_posterior","plants",2,"makes the plants grow",4,"speaker","Z142",10,"compound","make the plants grow","biological","krivels",0.16,"plants"
50,3786,"prior_and_posterior","germs",3,"kills the bacteria",6,"speaker","A325",30,"compound","kill the bacteria","gendered","glippets",0.15,"bacteria"
51,73456,"prior_and_posterior","bread",0,"makes the bread rise",6,"speaker","X137",50,"yeast","make the bread rise","rare","wugs",0.98,"breads"
51,45437,"prior_and_posterior","babies",1,"makes the babies stop crying",1,"speaker","Q681",70,"technique","make the babies stop crying","accidental","glippets",0.73,"babies"
51,31771,"prior_and_posterior","germs",2,"kills the bacteria",9,"speaker","A325",30,"compound","kill the bacteria","biological","feps",0.32,"bacteria"
51,19760,"prior_and_posterior","plants",3,"makes the plants grow",7,"speaker","Z142",10,"compound","make the plants grow","prevalent","elleps",0.16,"plants"
52,22782,"prior_and_posterior","babies",0,"makes the babies stop crying",9,"speaker","Q681",70,"technique","make the babies stop crying","biological","wugs",0.49,"babies"
52,8209,"prior_and_posterior","plants",1,"makes the plants grow",3,"speaker","Z142",10,"compound","make the plants grow","accidental","sapers",0.72,"plants"
52,4968,"prior_and_posterior","bread",2,"makes the bread rise",4,"speaker","X137",50,"yeast","make the bread rise","prevalent","zorbs",0.77,"breads"
52,8914,"prior_and_posterior","germs",3,"kills the bacteria",1,"speaker","A325",30,"compound","kill the bacteria","female","taifels",0.5,"bacteria"
53,29869,"prior_and_posterior","germs",0,"kills the bacteria",5,"speaker","Z142",70,"compound","kill the bacteria","female","feps",0.34,"bacteria"
53,19655,"prior_and_posterior","babies",1,"makes the babies stop crying",8,"speaker","Q681",10,"technique","make the babies stop crying","prevalent","glippets",0.05,"babies"
53,18588,"prior_and_posterior","bread",2,"makes the bread rise",2,"speaker","X137",30,"yeast","make the bread rise","biological","crullets",0.23,"breads"
53,20403,"prior_and_posterior","plants",3,"makes the plants grow",6,"speaker","A325",50,"compound","make the plants grow","rare","ollers",0.5,"plants"
54,2283,"prior_and_posterior","germs",0,"kills the bacteria",6,"speaker","Z142",30,"compound","kill the bacteria","female","glippets",0.42,"bacteria"
54,944,"prior_and_posterior","bread",1,"makes the bread rise",8,"speaker","X137",10,"yeast","make the bread rise","prevalent","zorbs",0.52,"breads"
54,1956,"prior_and_posterior","babies",2,"makes the babies stop crying",3,"speaker","A325",70,"technique","make the babies stop crying","biological","kweps",0.32,"babies"
54,1056,"prior_and_posterior","plants",3,"makes the plants grow",8,"speaker","Q681",50,"compound","make the plants grow","rare","pangolins",0.64,"plants"
55,23798,"prior_and_posterior","bread",0,"makes the bread rise",4,"speaker","X137",70,"yeast","make the bread rise","gendered","glippets",0.74,"breads"
55,12759,"prior_and_posterior","babies",1,"makes the babies stop crying",8,"speaker","Z142",30,"technique","make the babies stop crying","accidental","cheebas",0.51,"babies"
55,7845,"prior_and_posterior","germs",2,"kills the bacteria",9,"speaker","Q681",50,"compound","kill the bacteria","female","zorbs",0.43,"bacteria"
55,7138,"prior_and_posterior","plants",3,"makes the plants grow",9,"speaker","A325",10,"compound","make the plants grow","biological","zoovs",0.1,"plants"
56,37699,"prior_and_posterior","germs",0,"kills the bacteria",4,"speaker","A325",50,"compound","kill the bacteria","accidental","plovs",0.75,"bacteria"
56,21274,"prior_and_posterior","bread",1,"makes the bread rise",6,"speaker","Q681",70,"yeast","make the bread rise","biological","mooks",0.81,"breads"
56,68041,"prior_and_posterior","babies",2,"makes the babies stop crying",3,"speaker","X137",30,"technique","make the babies stop crying","prevalent","kweps",0.1,"babies"
56,15754,"prior_and_posterior","plants",3,"makes the plants grow",7,"speaker","Z142",10,"compound","make the plants grow","rare","ackles",0.03,"plants"
57,37717,"prior_and_posterior","bread",0,"makes the bread rise",6,"speaker","X137",70,"yeast","make the bread rise","accidental","daiths",0.77,"breads"
57,23122,"prior_and_posterior","plants",1,"makes the plants grow",3,"speaker","Q681",30,"compound","make the plants grow","biological","thups",0.24,"plants"
57,9351,"prior_and_posterior","germs",2,"kills the bacteria",5,"speaker","A325",10,"compound","kill the bacteria","gendered","krivels",0.28,"bacteria"
57,18314,"prior_and_posterior","babies",3,"makes the babies stop crying",8,"speaker","Z142",50,"technique","make the babies stop crying","rare","kazzes",0.51,"babies"
58,54525,"prior_and_posterior","babies",0,"makes the babies stop crying",7,"speaker","Z142",70,"technique","make the babies stop crying","gendered","reesles",0.82,"babies"
58,29798,"prior_and_posterior","plants",1,"makes the plants grow",4,"speaker","X137",10,"compound","make the plants grow","prevalent","kazzes",0.04,"plants"
58,26176,"prior_and_posterior","germs",2,"kills the bacteria",7,"speaker","A325",30,"compound","kill the bacteria","female","krivels",0.01,"bacteria"
58,34457,"prior_and_posterior","bread",3,"makes the bread rise",5,"speaker","Q681",50,"yeast","make the bread rise","accidental","kweps",0.61,"breads"
59,18438,"prior_and_posterior","germs",0,"kills the bacteria",5,"speaker","Q681",70,"compound","kill the bacteria","gendered","elleps",0.75,"bacteria"
59,11463,"prior_and_posterior","bread",1,"makes the bread rise",1,"speaker","X137",30,"yeast","make the bread rise","female","ackles",0.51,"breads"
59,4264,"prior_and_posterior","babies",2,"makes the babies stop crying",9,"speaker","Z142",50,"technique","make the babies stop crying","prevalent","sapers",0.26,"babies"
59,4240,"prior_and_posterior","plants",3,"makes the plants grow",5,"speaker","A325",10,"compound","make the plants grow","biological","morseths",0.06,"plants"
60,29842,"prior_and_posterior","plants",0,"makes the plants grow",7,"speaker","X137",70,"compound","make the plants grow","accidental","pangolins",0.26,"plants"
60,11665,"prior_and_posterior","bread",1,"makes the bread rise",4,"speaker","A325",30,"yeast","make the bread rise","gendered","lorches",0.7,"breads"
60,6282,"prior_and_posterior","germs",2,"kills the bacteria",5,"speaker","Q681",50,"compound","kill the bacteria","female","plovs",0.97,"bacteria"
60,7691,"prior_and_posterior","babies",3,"makes the babies stop crying",8,"speaker","Z142",10,"technique","make the babies stop crying","rare","elleps",0.22,"babies"
61,20475,"prior_and_posterior","babies",0,"makes the babies stop crying",5,"speaker","Q681",50,"technique","make the babies stop crying","rare","elleps",0.5,"babies"
61,11982,"prior_and_posterior","bread",1,"makes the bread rise",8,"speaker","X137",10,"yeast","make the bread rise","prevalent","daiths",0.14,"breads"
61,12674,"prior_and_posterior","germs",2,"kills the bacteria",7,"speaker","A325",70,"compound","kill the bacteria","accidental","morseths",0.78,"bacteria"
61,7439,"prior_and_posterior","plants",3,"makes the plants grow",3,"speaker","Z142",30,"compound","make the plants grow","gendered","stups",0.42,"plants"
62,28395,"prior_and_posterior","plants",0,"makes the plants grow",6,"speaker","A325",50,"compound","make the plants grow","rare","cheebas",1,"plants"
62,26107,"prior_and_posterior","bread",1,"makes the bread rise",3,"speaker","X137",30,"yeast","make the bread rise","female","plovs",0.28,"breads"
62,9107,"prior_and_posterior","germs",2,"kills the bacteria",8,"speaker","Q681",70,"compound","kill the bacteria","biological","taifels",0.22,"bacteria"
62,11750,"prior_and_posterior","babies",3,"makes the babies stop crying",7,"speaker","Z142",10,"technique","make the babies stop crying","gendered","ackles",0.5,"babies"
63,18389,"prior_and_posterior","babies",0,"makes the babies stop crying",2,"prior","Z142",NA,"technique","make the babies stop crying","female","trufts",0.5,"babies"
63,13694,"prior_and_posterior","germs",1,"kills the bacteria",5,"prior","Q681",NA,"compound","kill the bacteria","gendered","kweps",0.5,"bacteria"
63,3795,"prior_and_posterior","plants",2,"makes the plants grow",1,"prior","X137",NA,"compound","make the plants grow","biological","kazzes",1,"plants"
63,16467,"prior_and_posterior","bread",3,"makes the bread rise",2,"prior","A325",NA,"yeast","make the bread rise","rare","reesles",0.15,"breads"
64,29647,"prior_and_posterior","babies",0,"makes the babies stop crying",2,"speaker","A325",70,"technique","make the babies stop crying","female","glippets",0.69,"babies"
64,22127,"prior_and_posterior","plants",1,"makes the plants grow",3,"speaker","Q681",10,"compound","make the plants grow","accidental","lorches",0.49,"plants"
64,22079,"prior_and_posterior","germs",2,"kills the bacteria",7,"speaker","X137",50,"compound","kill the bacteria","prevalent","crullets",0.77,"bacteria"
64,18022,"prior_and_posterior","bread",3,"makes the bread rise",3,"speaker","Z142",30,"yeast","make the bread rise","rare","wugs",0.8,"breads"
65,60946,"prior_and_posterior","plants",0,"makes the plants grow",9,"listener","X137",NA,"compound","make the plants grow","biological","cheebas",1,"plants"
65,29055,"prior_and_posterior","bread",1,"makes the bread rise",6,"listener","A325",NA,"yeast","make the bread rise","prevalent","reesles",0.65,"breads"
65,46057,"prior_and_posterior","babies",2,"makes the babies stop crying",8,"listener","Q681",NA,"technique","make the babies stop crying","accidental","sapers",0.15,"babies"
65,11205,"prior_and_posterior","germs",3,"kills the bacteria",8,"listener","Z142",NA,"compound","kill the bacteria","gendered","zorbs",0.5,"bacteria"
66,66050,"prior_and_posterior","babies",0,"makes the babies stop crying",1,"listener","Z142",NA,"technique","make the babies stop crying","accidental","dorbs",0.1,"babies"
66,16636,"prior_and_posterior","plants",1,"makes the plants grow",3,"listener","Q681",NA,"compound","make the plants grow","female","glippets",0.5,"plants"
66,24110,"prior_and_posterior","germs",2,"kills the bacteria",8,"listener","X137",NA,"compound","kill the bacteria","biological","luzaks",1,"bacteria"
66,19040,"prior_and_posterior","bread",3,"makes the bread rise",1,"listener","A325",NA,"yeast","make the bread rise","prevalent","stups",0.65,"breads"
67,46468,"prior_and_posterior","germs",0,"kills the bacteria",8,"speaker","Q681",30,"compound","kill the bacteria","rare","sapers",0.33,"bacteria"
67,7633,"prior_and_posterior","bread",1,"makes the bread rise",9,"speaker","Z142",70,"yeast","make the bread rise","biological","pangolins",0.66,"breads"
67,7508,"prior_and_posterior","plants",2,"makes the plants grow",7,"speaker","X137",50,"compound","make the plants grow","gendered","zorbs",0.5,"plants"
67,11228,"prior_and_posterior","babies",3,"makes the babies stop crying",6,"speaker","A325",10,"technique","make the babies stop crying","prevalent","trufts",0.02,"babies"
68,25042,"prior_and_posterior","bread",0,"makes the bread rise",5,"speaker","Z142",70,"yeast","make the bread rise","accidental","thups",0.81,"breads"
68,15655,"prior_and_posterior","germs",1,"kills the bacteria",9,"speaker","A325",10,"compound","kill the bacteria","gendered","krivels",0.08,"bacteria"
68,11695,"prior_and_posterior","plants",2,"makes the plants grow",3,"speaker","X137",30,"compound","make the plants grow","biological","kweps",0,"plants"
68,20025,"prior_and_posterior","babies",3,"makes the babies stop crying",6,"speaker","Q681",50,"technique","make the babies stop crying","prevalent","plovs",0.5,"babies"
69,26093,"prior_and_posterior","germs",0,"kills the bacteria",2,"speaker","Q681",10,"compound","kill the bacteria","prevalent","grinks",0.06,"bacteria"
69,14300,"prior_and_posterior","babies",1,"makes the babies stop crying",5,"speaker","Z142",70,"technique","make the babies stop crying","accidental","moxes",0.84,"babies"
69,10482,"prior_and_posterior","plants",2,"makes the plants grow",3,"speaker","A325",50,"compound","make the plants grow","rare","ollers",0.88,"plants"
69,11314,"prior_and_posterior","bread",3,"makes the bread rise",2,"speaker","X137",30,"yeast","make the bread rise","gendered","kweps",0.24,"breads"
70,17648,"prior_and_posterior","babies",0,"makes the babies stop crying",5,"prior","Z142",NA,"technique","make the babies stop crying","female","blins",0.5,"babies"
70,15207,"prior_and_posterior","plants",1,"makes the plants grow",5,"prior","X137",NA,"compound","make the plants grow","prevalent","mooks",0.6,"plants"
70,11641,"prior_and_posterior","bread",2,"makes the bread rise",8,"prior","A325",NA,"yeast","make the bread rise","gendered","javs",0.5,"breads"
70,18284,"prior_and_posterior","germs",3,"kills the bacteria",9,"prior","Q681",NA,"compound","kill the bacteria","accidental","glippets",0.1,"bacteria"
71,47870,"prior_and_posterior","bread",0,"makes the bread rise",1,"speaker","Z142",30,"yeast","make the bread rise","prevalent","feps",0.39,"breads"
71,24022,"prior_and_posterior","germs",1,"kills the bacteria",9,"speaker","Q681",50,"compound","kill the bacteria","gendered","trufts",0.63,"bacteria"
71,17772,"prior_and_posterior","plants",2,"makes the plants grow",4,"speaker","X137",10,"compound","make the plants grow","female","krivels",0.14,"plants"
71,9907,"prior_and_posterior","babies",3,"makes the babies stop crying",5,"speaker","A325",70,"technique","make the babies stop crying","biological","lorches",0.75,"babies"
72,35494,"prior_and_posterior","plants",0,"makes the plants grow",8,"prior","Z142",NA,"compound","make the plants grow","prevalent","stups",0.65,"plants"
72,9685,"prior_and_posterior","germs",1,"kills the bacteria",6,"prior","A325",NA,"compound","kill the bacteria","gendered","javs",0,"bacteria"
72,6730,"prior_and_posterior","bread",2,"makes the bread rise",6,"prior","Q681",NA,"yeast","make the bread rise","rare","kazzes",0,"breads"
72,9893,"prior_and_posterior","babies",3,"makes the babies stop crying",1,"prior","X137",NA,"technique","make the babies stop crying","accidental","zoovs",0.1,"babies"
73,56009,"prior_and_posterior","babies",0,"makes the babies stop crying",8,"speaker","X137",70,"technique","make the babies stop crying","rare","kazzes",0.98,"babies"
73,44499,"prior_and_posterior","bread",1,"makes the bread rise",8,"speaker","A325",10,"yeast","make the bread rise","prevalent","dorbs",0.06,"breads"
73,33300,"prior_and_posterior","plants",2,"makes the plants grow",3,"speaker","Q681",30,"compound","make the plants grow","female","mooks",1,"plants"
73,14740,"prior_and_posterior","germs",3,"kills the bacteria",2,"speaker","Z142",50,"compound","kill the bacteria","biological","thups",0.92,"bacteria"
74,63974,"prior_and_posterior","bread",0,"makes the bread rise",5,"speaker","Q681",50,"yeast","make the bread rise","prevalent","mooks",0.72,"breads"
74,47862,"prior_and_posterior","plants",1,"makes the plants grow",1,"speaker","A325",30,"compound","make the plants grow","biological","krivels",0.53,"plants"
74,49657,"prior_and_posterior","babies",2,"makes the babies stop crying",1,"speaker","Z142",10,"technique","make the babies stop crying","rare","ackles",0.63,"babies"
74,27397,"prior_and_posterior","germs",3,"kills the bacteria",3,"speaker","X137",70,"compound","kill the bacteria","gendered","frams",0.89,"bacteria"
75,29011,"prior_and_posterior","germs",0,"kills the bacteria",6,"speaker","X137",10,"compound","kill the bacteria","rare","luzaks",0.08,"bacteria"
75,22792,"prior_and_posterior","babies",1,"makes the babies stop crying",8,"speaker","Q681",30,"technique","make the babies stop crying","female","dorbs",0.55,"babies"
75,20934,"prior_and_posterior","plants",2,"makes the plants grow",2,"speaker","Z142",70,"compound","make the plants grow","prevalent","frams",0.72,"plants"
75,11949,"prior_and_posterior","bread",3,"makes the bread rise",9,"speaker","A325",50,"yeast","make the bread rise","biological","sapers",0.43,"breads"
76,59876,"prior_and_posterior","plants",0,"makes the plants grow",8,"speaker","Z142",10,"compound","make the plants grow","rare","krivels",0.96,"plants"
76,34843,"prior_and_posterior","babies",1,"makes the babies stop crying",6,"speaker","X137",70,"technique","make the babies stop crying","accidental","crullets",0.98,"babies"
76,13119,"prior_and_posterior","germs",2,"kills the bacteria",9,"speaker","A325",30,"compound","kill the bacteria","gendered","trufts",0.72,"bacteria"
76,12572,"prior_and_posterior","bread",3,"makes the bread rise",6,"speaker","Q681",50,"yeast","make the bread rise","female","kweps",0.95,"breads"
77,33661,"prior_and_posterior","bread",0,"makes the bread rise",1,"speaker","Q681",10,"yeast","make the bread rise","female","ollers",0.54,"breads"
77,9453,"prior_and_posterior","germs",1,"kills the bacteria",6,"speaker","A325",50,"compound","kill the bacteria","gendered","kweps",0.23,"bacteria"
77,6737,"prior_and_posterior","plants",2,"makes the plants grow",2,"speaker","X137",70,"compound","make the plants grow","accidental","plovs",0.34,"plants"
77,15996,"prior_and_posterior","babies",3,"makes the babies stop crying",2,"speaker","Z142",30,"technique","make the babies stop crying","rare","mooks",0.42,"babies"
78,31842,"prior_and_posterior","babies",0,"makes the babies stop crying",7,"listener","Z142",NA,"technique","make the babies stop crying","prevalent","reesles",0.7,"babies"
78,12061,"prior_and_posterior","plants",1,"makes the plants grow",7,"listener","Q681",NA,"compound","make the plants grow","rare","plovs",0,"plants"
78,14267,"prior_and_posterior","bread",2,"makes the bread rise",1,"listener","X137",NA,"yeast","make the bread rise","accidental","luzaks",0.1,"breads"
78,10270,"prior_and_posterior","germs",3,"kills the bacteria",9,"listener","A325",NA,"compound","kill the bacteria","biological","sapers",1,"bacteria"
79,2318,"prior_and_posterior","babies",0,"makes the babies stop crying",5,"listener","Q681",NA,"technique","make the babies stop crying","rare","frams",0.56,"babies"
79,1621,"prior_and_posterior","germs",1,"kills the bacteria",8,"listener","X137",NA,"compound","kill the bacteria","accidental","pangolins",0.7,"bacteria"
79,1064,"prior_and_posterior","plants",2,"makes the plants grow",4,"listener","A325",NA,"compound","make the plants grow","female","krivels",0.69,"plants"
79,1755,"prior_and_posterior","bread",3,"makes the bread rise",7,"listener","Z142",NA,"yeast","make the bread rise","prevalent","feps",0.77,"breads"
80,55045,"prior_and_posterior","germs",0,"kills the bacteria",1,"speaker","Z142",50,"compound","kill the bacteria","biological","morseths",0.53,"bacteria"
80,7564,"prior_and_posterior","babies",1,"makes the babies stop crying",1,"speaker","Q681",10,"technique","make the babies stop crying","prevalent","kweps",0.09,"babies"
80,7178,"prior_and_posterior","plants",2,"makes the plants grow",1,"speaker","X137",30,"compound","make the plants grow","gendered","ackles",0.19,"plants"
80,6008,"prior_and_posterior","bread",3,"makes the bread rise",1,"speaker","A325",70,"yeast","make the bread rise","female","zorbs",0.82,"breads"
81,23504,"prior_and_posterior","germs",0,"kills the bacteria",3,"speaker","A325",30,"compound","kill the bacteria","prevalent","wugs",0.18,"bacteria"
81,22730,"prior_and_posterior","bread",1,"makes the bread rise",2,"speaker","Z142",70,"yeast","make the bread rise","rare","ollers",0.88,"breads"
81,11050,"prior_and_posterior","babies",2,"makes the babies stop crying",7,"speaker","Q681",50,"technique","make the babies stop crying","female","luzaks",0.5,"babies"
81,6068,"prior_and_posterior","plants",3,"makes the plants grow",9,"speaker","X137",10,"compound","make the plants grow","accidental","glippets",0.69,"plants"
82,6365,"prior_and_posterior","plants",0,"makes the plants grow",1,"speaker","X137",30,"compound","make the plants grow","rare","crullets",1,"plants"
82,4440,"prior_and_posterior","babies",1,"makes the babies stop crying",7,"speaker","Q681",50,"technique","make the babies stop crying","female","ollers",0.73,"babies"
82,4160,"prior_and_posterior","germs",2,"kills the bacteria",4,"speaker","Z142",10,"compound","kill the bacteria","gendered","plovs",0.39,"bacteria"
82,53327,"prior_and_posterior","bread",3,"makes the bread rise",4,"speaker","A325",70,"yeast","make the bread rise","prevalent","krivels",0.62,"breads"
83,20549,"prior_and_posterior","germs",0,"kills the bacteria",9,"prior","A325",NA,"compound","kill the bacteria","female","feps",0.5,"bacteria"
83,20503,"prior_and_posterior","bread",1,"makes the bread rise",9,"prior","X137",NA,"yeast","make the bread rise","rare","trufts",0.2,"breads"
83,18562,"prior_and_posterior","plants",2,"makes the plants grow",3,"prior","Z142",NA,"compound","make the plants grow","biological","kazzes",0,"plants"
83,24235,"prior_and_posterior","babies",3,"makes the babies stop crying",9,"prior","Q681",NA,"technique","make the babies stop crying","prevalent","elleps",0.6,"babies"
84,57525,"prior_and_posterior","plants",0,"makes the plants grow",6,"speaker","Q681",10,"compound","make the plants grow","prevalent","krivels",0.49,"plants"
84,29335,"prior_and_posterior","germs",1,"kills the bacteria",4,"speaker","Z142",70,"compound","kill the bacteria","accidental","ackles",0.84,"bacteria"
84,29090,"prior_and_posterior","babies",2,"makes the babies stop crying",3,"speaker","X137",30,"technique","make the babies stop crying","female","dorbs",0.41,"babies"
84,45495,"prior_and_posterior","bread",3,"makes the bread rise",9,"speaker","A325",50,"yeast","make the bread rise","rare","pangolins",0.84,"breads"
85,13816,"prior_and_posterior","babies",0,"makes the babies stop crying",4,"speaker","Q681",10,"technique","make the babies stop crying","rare","javs",0.14,"babies"
85,7297,"prior_and_posterior","germs",1,"kills the bacteria",1,"speaker","X137",50,"compound","kill the bacteria","accidental","crullets",0.2,"bacteria"
85,4649,"prior_and_posterior","bread",2,"makes the bread rise",9,"speaker","A325",30,"yeast","make the bread rise","prevalent","mooks",0.79,"breads"
85,4063,"prior_and_posterior","plants",3,"makes the plants grow",2,"speaker","Z142",70,"compound","make the plants grow","female","wugs",0.5,"plants"
86,65821,"prior_and_posterior","plants",0,"makes the plants grow",4,"speaker","A325",30,"compound","make the plants grow","gendered","krivels",0.98,"plants"
86,38549,"prior_and_posterior","germs",1,"kills the bacteria",2,"speaker","X137",10,"compound","kill the bacteria","biological","thups",0.76,"bacteria"
86,23987,"prior_and_posterior","babies",2,"makes the babies stop crying",9,"speaker","Q681",70,"technique","make the babies stop crying","female","dorbs",0.99,"babies"
86,18974,"prior_and_posterior","bread",3,"makes the bread rise",1,"speaker","Z142",50,"yeast","make the bread rise","rare","luzaks",0.51,"breads"
87,45666,"prior_and_posterior","germs",0,"kills the bacteria",2,"speaker","A325",30,"compound","kill the bacteria","rare","reesles",0.67,"bacteria"
87,20808,"prior_and_posterior","babies",1,"makes the babies stop crying",4,"speaker","X137",70,"technique","make the babies stop crying","gendered","mooks",0.99,"babies"
87,19065,"prior_and_posterior","plants",2,"makes the plants grow",2,"speaker","Z142",10,"compound","make the plants grow","prevalent","sapers",0.15,"plants"
87,12034,"prior_and_posterior","bread",3,"makes the bread rise",7,"speaker","Q681",50,"yeast","make the bread rise","female","feps",0.5,"breads"
88,30640,"prior_and_posterior","bread",0,"makes the bread rise",8,"speaker","X137",50,"yeast","make the bread rise","female","stups",0.51,"breads"
88,13408,"prior_and_posterior","germs",1,"kills the bacteria",5,"speaker","A325",30,"compound","kill the bacteria","accidental","thups",0.22,"bacteria"
88,98871,"prior_and_posterior","babies",2,"makes the babies stop crying",1,"speaker","Q681",10,"technique","make the babies stop crying","biological","blins",0.06,"babies"
88,11889,"prior_and_posterior","plants",3,"makes the plants grow",7,"speaker","Z142",70,"compound","make the plants grow","rare","glippets",0.7,"plants"
89,29406,"prior_and_posterior","bread",0,"makes the bread rise",9,"prior","Z142",NA,"yeast","make the bread rise","accidental","krivels",0.1,"breads"
89,6014,"prior_and_posterior","plants",1,"makes the plants grow",8,"prior","X137",NA,"compound","make the plants grow","gendered","sapers",0.5,"plants"
89,12855,"prior_and_posterior","babies",2,"makes the babies stop crying",1,"prior","Q681",NA,"technique","make the babies stop crying","prevalent","reesles",0.75,"babies"
89,11825,"prior_and_posterior","germs",3,"kills the bacteria",9,"prior","A325",NA,"compound","kill the bacteria","biological","kweps",1,"bacteria"
90,27893,"prior_and_posterior","germs",0,"kills the bacteria",6,"speaker","Q681",50,"compound","kill the bacteria","accidental","stups",0.85,"bacteria"
90,19159,"prior_and_posterior","babies",1,"makes the babies stop crying",7,"speaker","X137",30,"technique","make the babies stop crying","female","zorbs",0.19,"babies"
90,13920,"prior_and_posterior","plants",2,"makes the plants grow",6,"speaker","Z142",10,"compound","make the plants grow","gendered","reesles",0.07,"plants"
90,9552,"prior_and_posterior","bread",3,"makes the bread rise",3,"speaker","A325",70,"yeast","make the bread rise","rare","frams",0.83,"breads"
91,88243,"prior_and_posterior","babies",0,"makes the babies stop crying",8,"speaker","X137",10,"technique","make the babies stop crying","prevalent","ollers",0.73,"babies"
91,13459,"prior_and_posterior","germs",1,"kills the bacteria",6,"speaker","Z142",30,"compound","kill the bacteria","rare","elleps",0.04,"bacteria"
91,17843,"prior_and_posterior","plants",2,"makes the plants grow",4,"speaker","A325",50,"compound","make the plants grow","biological","frams",0.37,"plants"
91,13161,"prior_and_posterior","bread",3,"makes the bread rise",5,"speaker","Q681",70,"yeast","make the bread rise","gendered","sapers",0.1,"breads"
92,11841,"prior_and_posterior","babies",0,"makes the babies stop crying",4,"speaker","X137",70,"technique","make the babies stop crying","biological","lorches",0.92,"babies"
92,8531,"prior_and_posterior","bread",1,"makes the bread rise",2,"speaker","Q681",30,"yeast","make the bread rise","female","blins",0.3,"breads"
92,7723,"prior_and_posterior","plants",2,"makes the plants grow",7,"speaker","Z142",10,"compound","make the plants grow","rare","ollers",0.56,"plants"
92,7008,"prior_and_posterior","germs",3,"kills the bacteria",7,"speaker","A325",50,"compound","kill the bacteria","prevalent","feps",0.63,"bacteria"
93,24622,"prior_and_posterior","babies",0,"makes the babies stop crying",5,"speaker","Q681",30,"technique","make the babies stop crying","accidental","elleps",0.78,"babies"
93,7765,"prior_and_posterior","germs",1,"kills the bacteria",4,"speaker","X137",50,"compound","kill the bacteria","rare","kweps",0.09,"bacteria"
93,9271,"prior_and_posterior","bread",2,"makes the bread rise",9,"speaker","A325",70,"yeast","make the bread rise","biological","feps",0.49,"breads"
93,4632,"prior_and_posterior","plants",3,"makes the plants grow",9,"speaker","Z142",10,"compound","make the plants grow","gendered","ollers",0.5,"plants"
94,83023,"prior_and_posterior","bread",0,"makes the bread rise",4,"prior","A325",NA,"yeast","make the bread rise","gendered","stups",0,"breads"
94,34846,"prior_and_posterior","babies",1,"makes the babies stop crying",6,"prior","X137",NA,"technique","make the babies stop crying","biological","cheebas",1,"babies"
94,46640,"prior_and_posterior","germs",2,"kills the bacteria",5,"prior","Z142",NA,"compound","kill the bacteria","rare","lorches",0,"bacteria"
94,33271,"prior_and_posterior","plants",3,"makes the plants grow",3,"prior","Q681",NA,"compound","make the plants grow","accidental","crullets",0.05,"plants"
95,103631,"prior_and_posterior","germs",0,"kills the bacteria",5,"prior","Z142",NA,"compound","kill the bacteria","biological","sapers",0.35,"bacteria"
95,55809,"prior_and_posterior","babies",1,"makes the babies stop crying",6,"prior","Q681",NA,"technique","make the babies stop crying","prevalent","javs",0.65,"babies"
95,36721,"prior_and_posterior","plants",2,"makes the plants grow",3,"prior","A325",NA,"compound","make the plants grow","accidental","krivels",0.15,"plants"
95,25103,"prior_and_posterior","bread",3,"makes the bread rise",5,"prior","X137",NA,"yeast","make the bread rise","gendered","elleps",0.5,"breads"
96,46865,"prior_and_posterior","bread",0,"makes the bread rise",4,"prior","Q681",NA,"yeast","make the bread rise","prevalent","moxes",0.7,"breads"
96,28884,"prior_and_posterior","plants",1,"makes the plants grow",3,"prior","A325",NA,"compound","make the plants grow","female","krivels",0.5,"plants"
96,36916,"prior_and_posterior","germs",2,"kills the bacteria",6,"prior","Z142",NA,"compound","kill the bacteria","accidental","daiths",0.1,"bacteria"
96,40581,"prior_and_posterior","babies",3,"makes the babies stop crying",6,"prior","X137",NA,"technique","make the babies stop crying","biological","reesles",1,"babies"
97,37568,"prior_and_posterior","babies",0,"makes the babies stop crying",9,"speaker","A325",70,"technique","make the babies stop crying","biological","grinks",0.78,"babies"
97,17490,"prior_and_posterior","germs",1,"kills the bacteria",5,"speaker","Q681",50,"compound","kill the bacteria","gendered","stups",0.99,"bacteria"
97,11395,"prior_and_posterior","bread",2,"makes the bread rise",4,"speaker","X137",30,"yeast","make the bread rise","female","taifels",0.35,"breads"
97,7638,"prior_and_posterior","plants",3,"makes the plants grow",8,"speaker","Z142",10,"compound","make the plants grow","accidental","zoovs",0.1,"plants"
98,163452,"prior_and_posterior","babies",0,"makes the babies stop crying",1,"prior","Z142",NA,"technique","make the babies stop crying","rare","mooks",0,"babies"
98,47096,"prior_and_posterior","plants",1,"makes the plants grow",9,"prior","X137",NA,"compound","make the plants grow","accidental","luzaks",0.1,"plants"
98,31713,"prior_and_posterior","germs",2,"kills the bacteria",8,"prior","Q681",NA,"compound","kill the bacteria","female","grinks",0.5,"bacteria"
98,35956,"prior_and_posterior","bread",3,"makes the bread rise",7,"prior","A325",NA,"yeast","make the bread rise","gendered","plovs",0,"breads"
99,25128,"prior_and_posterior","plants",0,"makes the plants grow",7,"speaker","Z142",30,"compound","make the plants grow","gendered","reesles",0.98,"plants"
99,25124,"prior_and_posterior","babies",1,"makes the babies stop crying",4,"speaker","Q681",50,"technique","make the babies stop crying","accidental","crullets",1,"babies"
99,8459,"prior_and_posterior","germs",2,"kills the bacteria",7,"speaker","A325",70,"compound","kill the bacteria","female","ackles",0.99,"bacteria"
99,9906,"prior_and_posterior","bread",3,"makes the bread rise",6,"speaker","X137",10,"yeast","make the bread rise","biological","morseths",0.21,"breads"
100,89503,"prior_and_posterior","bread",0,"makes the bread rise",5,"speaker","X137",50,"yeast","make the bread rise","accidental","cheebas",0,"breads"
100,41335,"prior_and_posterior","plants",1,"makes the plants grow",3,"speaker","Q681",70,"compound","make the plants grow","gendered","trufts",0,"plants"
100,19612,"prior_and_posterior","babies",2,"makes the babies stop crying",4,"speaker","Z142",30,"technique","make the babies stop crying","prevalent","plovs",0,"babies"
100,18765,"prior_and_posterior","germs",3,"kills the bacteria",6,"speaker","A325",10,"compound","kill the bacteria","biological","thups",0,"bacteria"
101,29376,"prior_and_posterior","bread",0,"makes the bread rise",5,"speaker","X137",70,"yeast","make the bread rise","accidental","ackles",0.9,"breads"
101,14674,"prior_and_posterior","plants",1,"makes the plants grow",8,"speaker","A325",10,"compound","make the plants grow","gendered","glippets",0.67,"plants"
101,5544,"prior_and_posterior","babies",2,"makes the babies stop crying",6,"speaker","Q681",30,"technique","make the babies stop crying","rare","kazzes",0.84,"babies"
101,6481,"prior_and_posterior","germs",3,"kills the bacteria",8,"speaker","Z142",50,"compound","kill the bacteria","biological","lorches",0.8,"bacteria"
102,37760,"prior_and_posterior","plants",0,"makes the plants grow",5,"speaker","Q681",70,"compound","make the plants grow","gendered","trufts",0.81,"plants"
102,16996,"prior_and_posterior","babies",1,"makes the babies stop crying",8,"speaker","X137",10,"technique","make the babies stop crying","prevalent","crullets",0.07,"babies"
102,14210,"prior_and_posterior","germs",2,"kills the bacteria",5,"speaker","Z142",30,"compound","kill the bacteria","female","elleps",0.24,"bacteria"
102,10114,"prior_and_posterior","bread",3,"makes the bread rise",4,"speaker","A325",50,"yeast","make the bread rise","rare","grinks",0.5,"breads"
103,22972,"prior_and_posterior","germs",0,"kills the bacteria",8,"speaker","Z142",70,"compound","kill the bacteria","accidental","zorbs",0.8,"bacteria"
103,18958,"prior_and_posterior","babies",1,"makes the babies stop crying",9,"speaker","Q681",50,"technique","make the babies stop crying","female","mooks",0.49,"babies"
103,15163,"prior_and_posterior","plants",2,"makes the plants grow",4,"speaker","X137",10,"compound","make the plants grow","gendered","pangolins",0.11,"plants"
103,12988,"prior_and_posterior","bread",3,"makes the bread rise",9,"speaker","A325",30,"yeast","make the bread rise","prevalent","reesles",0.03,"breads"
104,53757,"prior_and_posterior","babies",0,"makes the babies stop crying",2,"prior","A325",NA,"technique","make the babies stop crying","biological","dorbs",0.02,"babies"
104,15427,"prior_and_posterior","germs",1,"kills the bacteria",6,"prior","X137",NA,"compound","kill the bacteria","female","krivels",0.5,"bacteria"
104,45424,"prior_and_posterior","bread",2,"makes the bread rise",6,"prior","Z142",NA,"yeast","make the bread rise","accidental","elleps",0.15,"breads"
104,17865,"prior_and_posterior","plants",3,"makes the plants grow",6,"prior","Q681",NA,"compound","make the plants grow","prevalent","cheebas",0.75,"plants"
105,83413,"prior_and_posterior","plants",0,"makes the plants grow",8,"prior","A325",NA,"compound","make the plants grow","accidental","ollers",0.05,"plants"
105,37432,"prior_and_posterior","babies",1,"makes the babies stop crying",5,"prior","Z142",NA,"technique","make the babies stop crying","female","morseths",0.5,"babies"
105,28460,"prior_and_posterior","germs",2,"kills the bacteria",3,"prior","Q681",NA,"compound","kill the bacteria","gendered","sapers",0,"bacteria"
105,29595,"prior_and_posterior","bread",3,"makes the bread rise",4,"prior","X137",NA,"yeast","make the bread rise","biological","grinks",0,"breads"
106,121247,"prior_and_posterior","babies",0,"makes the babies stop crying",5,"prior","A325",NA,"technique","make the babies stop crying","accidental","grinks",0.1,"babies"
106,58831,"prior_and_posterior","germs",1,"kills the bacteria",9,"prior","X137",NA,"compound","kill the bacteria","biological","feps",0,"bacteria"
106,24425,"prior_and_posterior","plants",2,"makes the plants grow",2,"prior","Q681",NA,"compound","make the plants grow","gendered","dorbs",0,"plants"
106,52928,"prior_and_posterior","bread",3,"makes the bread rise",9,"prior","Z142",NA,"yeast","make the bread rise","rare","wugs",0,"breads"
107,45417,"prior_and_posterior","germs",0,"kills the bacteria",5,"listener","Q681",NA,"compound","kill the bacteria","gendered","javs",0.5,"bacteria"
107,47648,"prior_and_posterior","babies",1,"makes the babies stop crying",1,"listener","X137",NA,"technique","make the babies stop crying","accidental","frams",0.08,"babies"
107,29362,"prior_and_posterior","bread",2,"makes the bread rise",2,"listener","A325",NA,"yeast","make the bread rise","prevalent","taifels",0.65,"breads"
107,23522,"prior_and_posterior","plants",3,"makes the plants grow",2,"listener","Z142",NA,"compound","make the plants grow","rare","crullets",0.13,"plants"
108,8417,"prior_and_posterior","babies",0,"makes the babies stop crying",1,"speaker","Z142",50,"technique","make the babies stop crying","accidental","frams",0.48,"babies"
108,2560,"prior_and_posterior","plants",1,"makes the plants grow",8,"speaker","X137",10,"compound","make the plants grow","rare","morseths",0.73,"plants"
108,1037,"prior_and_posterior","germs",2,"kills the bacteria",9,"speaker","A325",30,"compound","kill the bacteria","biological","glippets",0.25,"bacteria"
108,1704,"prior_and_posterior","bread",3,"makes the bread rise",3,"speaker","Q681",70,"yeast","make the bread rise","female","sapers",0.79,"breads"
109,31978,"prior_and_posterior","plants",0,"makes the plants grow",6,"prior","A325",NA,"compound","make the plants grow","female","mooks",0.5,"plants"
109,30719,"prior_and_posterior","babies",1,"makes the babies stop crying",2,"prior","X137",NA,"technique","make the babies stop crying","gendered","crullets",0,"babies"
109,27157,"prior_and_posterior","bread",2,"makes the bread rise",9,"prior","Z142",NA,"yeast","make the bread rise","rare","feps",0.1,"breads"
109,16657,"prior_and_posterior","germs",3,"kills the bacteria",2,"prior","Q681",NA,"compound","kill the bacteria","biological","grinks",1,"bacteria"
110,4640,"prior_and_posterior","bread",0,"makes the bread rise",4,"speaker","Q681",50,"yeast","make the bread rise","biological","mooks",0.75,"breads"
110,1558,"prior_and_posterior","germs",1,"kills the bacteria",7,"speaker","Z142",10,"compound","kill the bacteria","rare","zoovs",0.65,"bacteria"
110,1386,"prior_and_posterior","babies",2,"makes the babies stop crying",9,"speaker","A325",30,"technique","make the babies stop crying","accidental","ackles",0.52,"babies"
110,2519,"prior_and_posterior","plants",3,"makes the plants grow",3,"speaker","X137",70,"compound","make the plants grow","female","morseths",0.67,"plants"
111,27035,"prior_and_posterior","plants",0,"makes the plants grow",8,"speaker","A325",70,"compound","make the plants grow","female","kazzes",0.8,"plants"
111,32913,"prior_and_posterior","bread",1,"makes the bread rise",1,"speaker","Q681",10,"yeast","make the bread rise","rare","glippets",0.17,"breads"
111,13399,"prior_and_posterior","germs",2,"kills the bacteria",4,"speaker","Z142",50,"compound","kill the bacteria","biological","frams",0.02,"bacteria"
111,16209,"prior_and_posterior","babies",3,"makes the babies stop crying",4,"speaker","X137",30,"technique","make the babies stop crying","gendered","zoovs",0.1,"babies"
112,21231,"prior_and_posterior","plants",0,"makes the plants grow",9,"listener","Z142",NA,"compound","make the plants grow","female","glippets",0.5,"plants"
112,17258,"prior_and_posterior","bread",1,"makes the bread rise",7,"listener","Q681",NA,"yeast","make the bread rise","prevalent","sapers",0.65,"breads"
112,11661,"prior_and_posterior","germs",2,"kills the bacteria",5,"listener","X137",NA,"compound","kill the bacteria","gendered","dorbs",0.5,"bacteria"
112,15809,"prior_and_posterior","babies",3,"makes the babies stop crying",6,"listener","A325",NA,"technique","make the babies stop crying","biological","wugs",1,"babies"
113,258188,"prior_and_posterior","bread",0,"makes the bread rise",7,"speaker","Z142",30,"yeast","make the bread rise","rare","frams",0.97,"breads"
113,39446,"prior_and_posterior","germs",1,"kills the bacteria",1,"speaker","A325",50,"compound","kill the bacteria","accidental","plovs",0.97,"bacteria"
113,20144,"prior_and_posterior","plants",2,"makes the plants grow",5,"speaker","Q681",10,"compound","make the plants grow","female","crullets",0.98,"plants"
113,16821,"prior_and_posterior","babies",3,"makes the babies stop crying",6,"speaker","X137",70,"technique","make the babies stop crying","biological","feps",0.98,"babies"
114,102264,"prior_and_posterior","plants",0,"makes the plants grow",5,"prior","Q681",NA,"compound","make the plants grow","biological","javs",0,"plants"
114,66028,"prior_and_posterior","bread",1,"makes the bread rise",6,"prior","X137",NA,"yeast","make the bread rise","female","mooks",0.5,"breads"
114,60101,"prior_and_posterior","babies",2,"makes the babies stop crying",5,"prior","A325",NA,"technique","make the babies stop crying","accidental","crullets",0.15,"babies"
114,57020,"prior_and_posterior","germs",3,"kills the bacteria",3,"prior","Z142",NA,"compound","kill the bacteria","prevalent","kweps",0.65,"bacteria"
115,15213,"prior_and_posterior","germs",0,"kills the bacteria",9,"prior","A325",NA,"compound","kill the bacteria","female","blins",0.5,"bacteria"
115,16965,"prior_and_posterior","babies",1,"makes the babies stop crying",3,"prior","Z142",NA,"technique","make the babies stop crying","gendered","trufts",0.01,"babies"
115,15843,"prior_and_posterior","plants",2,"makes the plants grow",6,"prior","X137",NA,"compound","make the plants grow","prevalent","zorbs",0.6,"plants"
115,12578,"prior_and_posterior","bread",3,"makes the bread rise",2,"prior","Q681",NA,"yeast","make the bread rise","rare","lorches",0,"breads"
116,33463,"prior_and_posterior","germs",0,"kills the bacteria",1,"speaker","Q681",30,"compound","kill the bacteria","accidental","blins",0.21,"bacteria"
116,13424,"prior_and_posterior","plants",1,"makes the plants grow",7,"speaker","Z142",70,"compound","make the plants grow","female","ollers",0.78,"plants"
116,10620,"prior_and_posterior","babies",2,"makes the babies stop crying",8,"speaker","A325",10,"technique","make the babies stop crying","rare","feps",0.08,"babies"
116,24147,"prior_and_posterior","bread",3,"makes the bread rise",2,"speaker","X137",50,"yeast","make the bread rise","prevalent","mooks",0.5,"breads"
117,21452,"prior_and_posterior","bread",0,"makes the bread rise",8,"prior","Q681",NA,"yeast","make the bread rise","prevalent","sapers",0.8,"breads"
117,5899,"prior_and_posterior","plants",1,"makes the plants grow",6,"prior","X137",NA,"compound","make the plants grow","rare","kweps",0,"plants"
117,6078,"prior_and_posterior","babies",2,"makes the babies stop crying",5,"prior","Z142",NA,"technique","make the babies stop crying","accidental","cheebas",0.05,"babies"
117,4972,"prior_and_posterior","germs",3,"kills the bacteria",2,"prior","A325",NA,"compound","kill the bacteria","gendered","mooks",0,"bacteria"
118,46660,"prior_and_posterior","plants",0,"makes the plants grow",9,"speaker","Q681",10,"compound","make the plants grow","accidental","mooks",0.72,"plants"
118,16021,"prior_and_posterior","babies",1,"makes the babies stop crying",2,"speaker","Z142",70,"technique","make the babies stop crying","female","cheebas",1,"babies"
118,11784,"prior_and_posterior","germs",2,"kills the bacteria",1,"speaker","A325",50,"compound","kill the bacteria","rare","grinks",1,"bacteria"
118,9722,"prior_and_posterior","bread",3,"makes the bread rise",6,"speaker","X137",30,"yeast","make the bread rise","prevalent","sapers",0,"breads"
119,68136,"prior_and_posterior","bread",0,"makes the bread rise",5,"listener","Z142",NA,"yeast","make the bread rise","accidental","moxes",0.6,"breads"
119,22933,"prior_and_posterior","plants",1,"makes the plants grow",5,"listener","Q681",NA,"compound","make the plants grow","biological","ollers",1,"plants"
119,36161,"prior_and_posterior","germs",2,"kills the bacteria",8,"listener","A325",NA,"compound","kill the bacteria","prevalent","elleps",0.9,"bacteria"
119,23684,"prior_and_posterior","babies",3,"makes the babies stop crying",2,"listener","X137",NA,"technique","make the babies stop crying","female","krivels",0.8,"babies"
120,23887,"prior_and_posterior","babies",0,"makes the babies stop crying",8,"prior","Z142",NA,"technique","make the babies stop crying","female","moxes",0.5,"babies"
120,22436,"prior_and_posterior","plants",1,"makes the plants grow",1,"prior","A325",NA,"compound","make the plants grow","gendered","stups",0,"plants"
120,16778,"prior_and_posterior","bread",2,"makes the bread rise",4,"prior","Q681",NA,"yeast","make the bread rise","biological","krivels",1,"breads"
120,26106,"prior_and_posterior","germs",3,"kills the bacteria",4,"prior","X137",NA,"compound","kill the bacteria","rare","cheebas",0.25,"bacteria"
121,12259,"prior_and_posterior","germs",0,"kills the bacteria",4,"prior","X137",NA,"compound","kill the bacteria","female","blins",0.5,"bacteria"
121,11784,"prior_and_posterior","bread",1,"makes the bread rise",6,"prior","Q681",NA,"yeast","make the bread rise","gendered","krivels",0.5,"breads"
121,10397,"prior_and_posterior","plants",2,"makes the plants grow",8,"prior","A325",NA,"compound","make the plants grow","rare","crullets",0.2,"plants"
121,8912,"prior_and_posterior","babies",3,"makes the babies stop crying",9,"prior","Z142",NA,"technique","make the babies stop crying","biological","stups",1,"babies"
122,66372,"prior_and_posterior","germs",0,"kills the bacteria",4,"speaker","A325",70,"compound","kill the bacteria","female","taifels",1,"bacteria"
122,27980,"prior_and_posterior","babies",1,"makes the babies stop crying",9,"speaker","X137",50,"technique","make the babies stop crying","accidental","sapers",1,"babies"
122,26694,"prior_and_posterior","bread",2,"makes the bread rise",5,"speaker","Q681",10,"yeast","make the bread rise","biological","javs",0,"breads"
122,10447,"prior_and_posterior","plants",3,"makes the plants grow",3,"speaker","Z142",30,"compound","make the plants grow","gendered","feps",0.21,"plants"
123,28699,"prior_and_posterior","bread",0,"makes the bread rise",3,"prior","Q681",NA,"yeast","make the bread rise","prevalent","glippets",0.8,"breads"
123,13333,"prior_and_posterior","germs",1,"kills the bacteria",7,"prior","X137",NA,"compound","kill the bacteria","gendered","reesles",0,"bacteria"
123,13163,"prior_and_posterior","plants",2,"makes the plants grow",6,"prior","A325",NA,"compound","make the plants grow","rare","taifels",0,"plants"
123,15796,"prior_and_posterior","babies",3,"makes the babies stop crying",4,"prior","Z142",NA,"technique","make the babies stop crying","accidental","javs",0.1,"babies"
124,39422,"prior_and_posterior","bread",0,"makes the bread rise",7,"speaker","Q681",70,"yeast","make the bread rise","gendered","frams",0.78,"breads"
124,12303,"prior_and_posterior","plants",1,"makes the plants grow",1,"speaker","A325",10,"compound","make the plants grow","prevalent","lorches",0.18,"plants"
124,5915,"prior_and_posterior","germs",2,"kills the bacteria",4,"speaker","X137",30,"compound","kill the bacteria","rare","moxes",0.29,"bacteria"
124,3890,"prior_and_posterior","babies",3,"makes the babies stop crying",9,"speaker","Z142",50,"technique","make the babies stop crying","accidental","cheebas",0.46,"babies"
125,93881,"prior_and_posterior","bread",0,"makes the bread rise",1,"speaker","X137",30,"yeast","make the bread rise","prevalent","wugs",0.52,"breads"
125,14203,"prior_and_posterior","germs",1,"kills the bacteria",2,"speaker","A325",70,"compound","kill the bacteria","accidental","kweps",0.51,"bacteria"
125,7396,"prior_and_posterior","plants",2,"makes the plants grow",6,"speaker","Z142",10,"compound","make the plants grow","female","dorbs",0.51,"plants"
125,10542,"prior_and_posterior","babies",3,"makes the babies stop crying",4,"speaker","Q681",50,"technique","make the babies stop crying","biological","javs",0.49,"babies"
